"Subject"	"DemoAge.RESP"	"DemoEthnicity.RESP"	"DemoGender.RESP"	"DemoRace.RESP"	"responseMappingRace"	"responseMappingVal"	"Block"	"Trial"	"SubTrial"	"Task"	"TrialType"	"faceRace"	"FixArea"	"responseAccDat.wrong"	"TargetFace.ACC.wrong"	"TargetFace.RT"	"Effort.RESP"	"Attentive.RESP"	"TargetPic"	"responseAccDat"	"TargetFace.ACC"
1	1	2	1	5	"blackRight"	"posLeft"	2	1	1	"practiceBlockCat"	"White_forehead"	"White"	"forehead"	3	0	0	5	3	"White70.jpg"	3	0
1	1	2	1	5	"blackRight"	"posLeft"	2	1	2	"practiceBlockCat"	"Black_forehead"	"Black"	"forehead"	2	1	353	5	3	"Black67.jpg"	2	1
1	1	2	1	5	"blackRight"	"posLeft"	2	1	3	"practiceBlockCat"	"Black_eyes"	"Black"	"eyes"	1	0	743	5	3	"Black70.jpg"	2	1
1	1	2	1	5	"blackRight"	"posLeft"	2	1	4	"practiceBlockCat"	"Black_eyes"	"Black"	"eyes"	1	0	414	5	3	"Black69.jpg"	2	1
1	1	2	1	5	"blackRight"	"posLeft"	2	1	5	"practiceBlockCat"	"Black_forehead"	"Black"	"forehead"	2	1	341	5	3	"Black62.jpg"	2	1
1	1	2	1	5	"blackRight"	"posLeft"	2	1	6	"practiceBlockCat"	"White_eyes"	"White"	"eyes"	2	1	572	5	3	"White69.jpg"	2	1
1	1	2	1	5	"blackRight"	"posLeft"	2	1	7	"practiceBlockCat"	"White_forehead"	"White"	"forehead"	2	1	627	5	3	"White63.jpg"	2	1
1	1	2	1	5	"blackRight"	"posLeft"	2	1	8	"practiceBlockCat"	"White_eyes"	"White"	"eyes"	2	1	530	5	3	"White66.jpg"	2	1
1	1	2	1	5	"blackRight"	"posLeft"	2	2	1	"expBlockCat"	"Black_eyes"	"Black"	"eyes"	1	0	474	5	3	"Black33.jpg"	2	1
1	1	2	1	5	"blackRight"	"posLeft"	2	2	2	"expBlockCat"	"Black_eyes"	"Black"	"eyes"	1	0	608	5	3	"Black26.jpg"	2	1
1	1	2	1	5	"blackRight"	"posLeft"	2	2	3	"expBlockCat"	"White_forehead"	"White"	"forehead"	2	1	382	5	3	"White1.jpg"	2	1
1	1	2	1	5	"blackRight"	"posLeft"	2	2	4	"expBlockCat"	"White_eyes"	"White"	"eyes"	2	1	468	5	3	"White32.jpg"	2	1
1	1	2	1	5	"blackRight"	"posLeft"	2	2	5	"expBlockCat"	"Black_forehead"	"Black"	"forehead"	2	1	481	5	3	"Black7.jpg"	2	1
1	1	2	1	5	"blackRight"	"posLeft"	2	2	6	"expBlockCat"	"White_eyes"	"White"	"eyes"	2	1	463	5	3	"White30.jpg"	2	1
1	1	2	1	5	"blackRight"	"posLeft"	2	2	7	"expBlockCat"	"Black_eyes"	"Black"	"eyes"	1	0	509	5	3	"Black3.jpg"	2	1
1	1	2	1	5	"blackRight"	"posLeft"	2	2	8	"expBlockCat"	"White_forehead"	"White"	"forehead"	2	1	554	5	3	"White32.jpg"	2	1
1	1	2	1	5	"blackRight"	"posLeft"	2	2	9	"expBlockCat"	"Black_eyes"	"Black"	"eyes"	1	0	536	5	3	"Black25.jpg"	2	1
1	1	2	1	5	"blackRight"	"posLeft"	2	2	10	"expBlockCat"	"White_forehead"	"White"	"forehead"	1	0	454	5	3	"White35.jpg"	1	0
1	1	2	1	5	"blackRight"	"posLeft"	2	2	11	"expBlockCat"	"White_forehead"	"White"	"forehead"	2	1	523	5	3	"White12.jpg"	2	1
1	1	2	1	5	"blackRight"	"posLeft"	2	2	12	"expBlockCat"	"Black_eyes"	"Black"	"eyes"	1	0	426	5	3	"Black40.jpg"	2	1
1	1	2	1	5	"blackRight"	"posLeft"	2	2	13	"expBlockCat"	"White_forehead"	"White"	"forehead"	2	1	615	5	3	"White5.jpg"	2	1
1	1	2	1	5	"blackRight"	"posLeft"	2	2	14	"expBlockCat"	"White_eyes"	"White"	"eyes"	2	1	621	5	3	"White10.jpg"	2	1
1	1	2	1	5	"blackRight"	"posLeft"	2	2	15	"expBlockCat"	"White_eyes"	"White"	"eyes"	1	0	778	5	3	"White11.jpg"	1	0
1	1	2	1	5	"blackRight"	"posLeft"	2	2	16	"expBlockCat"	"Black_forehead"	"Black"	"forehead"	3	0	0	5	3	"Black6.jpg"	3	0
1	1	2	1	5	"blackRight"	"posLeft"	2	2	17	"expBlockCat"	"White_eyes"	"White"	"eyes"	2	1	494	5	3	"White6.jpg"	2	1
1	1	2	1	5	"blackRight"	"posLeft"	2	2	18	"expBlockCat"	"White_forehead"	"White"	"forehead"	2	1	596	5	3	"White29.jpg"	2	1
1	1	2	1	5	"blackRight"	"posLeft"	2	2	19	"expBlockCat"	"Black_eyes"	"Black"	"eyes"	1	0	610	5	3	"Black12.jpg"	2	1
1	1	2	1	5	"blackRight"	"posLeft"	2	2	20	"expBlockCat"	"White_forehead"	"White"	"forehead"	2	1	519	5	3	"White18.jpg"	2	1
1	1	2	1	5	"blackRight"	"posLeft"	2	2	21	"expBlockCat"	"White_forehead"	"White"	"forehead"	2	1	461	5	3	"White16.jpg"	2	1
1	1	2	1	5	"blackRight"	"posLeft"	2	2	22	"expBlockCat"	"White_forehead"	"White"	"forehead"	2	1	706	5	3	"White21.jpg"	2	1
1	1	2	1	5	"blackRight"	"posLeft"	2	2	23	"expBlockCat"	"White_eyes"	"White"	"eyes"	2	1	584	5	3	"White23.jpg"	2	1
1	1	2	1	5	"blackRight"	"posLeft"	2	2	24	"expBlockCat"	"White_eyes"	"White"	"eyes"	2	1	302	5	3	"White14.jpg"	2	1
1	1	2	1	5	"blackRight"	"posLeft"	2	2	25	"expBlockCat"	"Black_eyes"	"Black"	"eyes"	2	1	292	5	3	"Black27.jpg"	1	0
1	1	2	1	5	"blackRight"	"posLeft"	2	2	26	"expBlockCat"	"Black_forehead"	"Black"	"forehead"	2	1	418	5	3	"Black15.jpg"	2	1
1	1	2	1	5	"blackRight"	"posLeft"	2	2	27	"expBlockCat"	"Black_eyes"	"Black"	"eyes"	1	0	464	5	3	"Black20.jpg"	2	1
1	1	2	1	5	"blackRight"	"posLeft"	2	2	28	"expBlockCat"	"Black_forehead"	"Black"	"forehead"	2	1	254	5	3	"Black39.jpg"	2	1
1	1	2	1	5	"blackRight"	"posLeft"	2	2	29	"expBlockCat"	"Black_eyes"	"Black"	"eyes"	1	0	365	5	3	"Black17.jpg"	2	1
1	1	2	1	5	"blackRight"	"posLeft"	2	2	30	"expBlockCat"	"White_eyes"	"White"	"eyes"	2	1	547	5	3	"White21.jpg"	2	1
1	1	2	1	5	"blackRight"	"posLeft"	2	2	31	"expBlockCat"	"Black_eyes"	"Black"	"eyes"	1	0	473	5	3	"Black5.jpg"	2	1
1	1	2	1	5	"blackRight"	"posLeft"	2	2	32	"expBlockCat"	"White_forehead"	"White"	"forehead"	2	1	526	5	3	"White20.jpg"	2	1
1	1	2	1	5	"blackRight"	"posLeft"	2	2	33	"expBlockCat"	"White_forehead"	"White"	"forehead"	2	1	436	5	3	"White23.jpg"	2	1
1	1	2	1	5	"blackRight"	"posLeft"	2	2	34	"expBlockCat"	"Black_forehead"	"Black"	"forehead"	2	1	378	5	3	"Black29.jpg"	2	1
1	1	2	1	5	"blackRight"	"posLeft"	2	2	35	"expBlockCat"	"White_eyes"	"White"	"eyes"	2	1	537	5	3	"White24.jpg"	2	1
1	1	2	1	5	"blackRight"	"posLeft"	2	2	36	"expBlockCat"	"Black_forehead"	"Black"	"forehead"	2	1	471	5	3	"Black31.jpg"	2	1
1	1	2	1	5	"blackRight"	"posLeft"	2	2	37	"expBlockCat"	"White_forehead"	"White"	"forehead"	2	1	581	5	3	"White9.jpg"	2	1
1	1	2	1	5	"blackRight"	"posLeft"	2	2	38	"expBlockCat"	"Black_forehead"	"Black"	"forehead"	2	1	771	5	3	"Black40.jpg"	2	1
1	1	2	1	5	"blackRight"	"posLeft"	2	2	39	"expBlockCat"	"White_forehead"	"White"	"forehead"	2	1	433	5	3	"White17.jpg"	2	1
1	1	2	1	5	"blackRight"	"posLeft"	2	2	40	"expBlockCat"	"White_eyes"	"White"	"eyes"	2	1	431	5	3	"White16.jpg"	2	1
1	1	2	1	5	"blackRight"	"posLeft"	2	2	41	"expBlockCat"	"Black_forehead"	"Black"	"forehead"	2	1	477	5	3	"Black22.jpg"	2	1
1	1	2	1	5	"blackRight"	"posLeft"	2	2	42	"expBlockCat"	"Black_forehead"	"Black"	"forehead"	2	1	507	5	3	"Black12.jpg"	2	1
1	1	2	1	5	"blackRight"	"posLeft"	2	2	43	"expBlockCat"	"Black_forehead"	"Black"	"forehead"	2	1	546	5	3	"Black10.jpg"	2	1
1	1	2	1	5	"blackRight"	"posLeft"	2	2	44	"expBlockCat"	"White_eyes"	"White"	"eyes"	2	1	488	5	3	"White2.jpg"	2	1
1	1	2	1	5	"blackRight"	"posLeft"	2	2	45	"expBlockCat"	"Black_eyes"	"Black"	"eyes"	1	0	438	5	3	"Black7.jpg"	2	1
1	1	2	1	5	"blackRight"	"posLeft"	2	2	46	"expBlockCat"	"White_eyes"	"White"	"eyes"	2	1	460	5	3	"White1.jpg"	2	1
1	1	2	1	5	"blackRight"	"posLeft"	2	2	47	"expBlockCat"	"Black_forehead"	"Black"	"forehead"	1	0	394	5	3	"Black16.jpg"	1	0
1	1	2	1	5	"blackRight"	"posLeft"	2	2	48	"expBlockCat"	"Black_eyes"	"Black"	"eyes"	1	0	433	5	3	"Black32.jpg"	2	1
1	1	2	1	5	"blackRight"	"posLeft"	2	2	49	"expBlockCat"	"White_forehead"	"White"	"forehead"	2	1	543	5	3	"White38.jpg"	2	1
1	1	2	1	5	"blackRight"	"posLeft"	2	2	50	"expBlockCat"	"Black_eyes"	"Black"	"eyes"	1	0	525	5	3	"Black8.jpg"	2	1
1	1	2	1	5	"blackRight"	"posLeft"	2	2	51	"expBlockCat"	"Black_eyes"	"Black"	"eyes"	1	0	339	5	3	"Black9.jpg"	2	1
1	1	2	1	5	"blackRight"	"posLeft"	2	2	52	"expBlockCat"	"Black_eyes"	"Black"	"eyes"	1	0	257	5	3	"Black11.jpg"	2	1
1	1	2	1	5	"blackRight"	"posLeft"	2	2	53	"expBlockCat"	"Black_eyes"	"Black"	"eyes"	1	0	368	5	3	"Black15.jpg"	2	1
1	1	2	1	5	"blackRight"	"posLeft"	2	2	54	"expBlockCat"	"White_forehead"	"White"	"forehead"	2	1	478	5	3	"White33.jpg"	2	1
1	1	2	1	5	"blackRight"	"posLeft"	2	2	55	"expBlockCat"	"White_forehead"	"White"	"forehead"	1	0	349	5	3	"White22.jpg"	1	0
1	1	2	1	5	"blackRight"	"posLeft"	2	2	56	"expBlockCat"	"Black_eyes"	"Black"	"eyes"	1	0	523	5	3	"Black13.jpg"	2	1
1	1	2	1	5	"blackRight"	"posLeft"	2	2	57	"expBlockCat"	"White_forehead"	"White"	"forehead"	1	0	432	5	3	"White31.jpg"	1	0
1	1	2	1	5	"blackRight"	"posLeft"	2	2	58	"expBlockCat"	"Black_forehead"	"Black"	"forehead"	2	1	455	5	3	"Black23.jpg"	2	1
1	1	2	1	5	"blackRight"	"posLeft"	2	2	59	"expBlockCat"	"White_forehead"	"White"	"forehead"	2	1	309	5	3	"White14.jpg"	2	1
1	1	2	1	5	"blackRight"	"posLeft"	2	2	60	"expBlockCat"	"Black_forehead"	"Black"	"forehead"	2	1	379	5	3	"Black2.jpg"	2	1
1	1	2	1	5	"blackRight"	"posLeft"	2	2	61	"expBlockCat"	"Black_forehead"	"Black"	"forehead"	1	0	497	5	3	"Black8.jpg"	1	0
1	1	2	1	5	"blackRight"	"posLeft"	2	2	62	"expBlockCat"	"White_forehead"	"White"	"forehead"	2	1	591	5	3	"White10.jpg"	2	1
1	1	2	1	5	"blackRight"	"posLeft"	2	2	63	"expBlockCat"	"White_forehead"	"White"	"forehead"	2	1	534	5	3	"White30.jpg"	2	1
1	1	2	1	5	"blackRight"	"posLeft"	2	2	64	"expBlockCat"	"White_eyes"	"White"	"eyes"	2	1	436	5	3	"White56.jpg"	2	1
1	1	2	1	5	"blackRight"	"posLeft"	2	2	65	"expBlockCat"	"Black_forehead"	"Black"	"forehead"	2	1	522	5	3	"Black9.jpg"	2	1
1	1	2	1	5	"blackRight"	"posLeft"	2	2	66	"expBlockCat"	"Black_eyes"	"Black"	"eyes"	1	0	416	5	3	"Black50.jpg"	2	1
1	1	2	1	5	"blackRight"	"posLeft"	2	2	67	"expBlockCat"	"White_eyes"	"White"	"eyes"	2	1	334	5	3	"White9.jpg"	2	1
1	1	2	1	5	"blackRight"	"posLeft"	2	2	68	"expBlockCat"	"Black_forehead"	"Black"	"forehead"	2	1	461	5	3	"Black3.jpg"	2	1
1	1	2	1	5	"blackRight"	"posLeft"	2	2	69	"expBlockCat"	"Black_forehead"	"Black"	"forehead"	2	1	491	5	3	"Black1.jpg"	2	1
1	1	2	1	5	"blackRight"	"posLeft"	2	2	70	"expBlockCat"	"White_eyes"	"White"	"eyes"	2	1	465	5	3	"White22.jpg"	2	1
1	1	2	1	5	"blackRight"	"posLeft"	2	2	71	"expBlockCat"	"Black_eyes"	"Black"	"eyes"	1	0	455	5	3	"Black6.jpg"	2	1
1	1	2	1	5	"blackRight"	"posLeft"	2	2	72	"expBlockCat"	"White_eyes"	"White"	"eyes"	2	1	373	5	3	"White34.jpg"	2	1
1	1	2	1	5	"blackRight"	"posLeft"	2	2	73	"expBlockCat"	"Black_forehead"	"Black"	"forehead"	2	1	388	5	3	"Black26.jpg"	2	1
1	1	2	1	5	"blackRight"	"posLeft"	2	2	74	"expBlockCat"	"White_forehead"	"White"	"forehead"	2	1	561	5	3	"White11.jpg"	2	1
1	1	2	1	5	"blackRight"	"posLeft"	2	2	75	"expBlockCat"	"Black_forehead"	"Black"	"forehead"	2	1	503	5	3	"Black51.jpg"	2	1
1	1	2	1	5	"blackRight"	"posLeft"	2	2	76	"expBlockCat"	"Black_eyes"	"Black"	"eyes"	1	0	437	5	3	"Black21.jpg"	2	1
1	1	2	1	5	"blackRight"	"posLeft"	2	2	77	"expBlockCat"	"Black_eyes"	"Black"	"eyes"	1	0	420	5	3	"Black2.jpg"	2	1
1	1	2	1	5	"blackRight"	"posLeft"	2	2	78	"expBlockCat"	"White_eyes"	"White"	"eyes"	2	1	506	5	3	"White35.jpg"	2	1
1	1	2	1	5	"blackRight"	"posLeft"	2	2	79	"expBlockCat"	"White_forehead"	"White"	"forehead"	2	1	408	5	3	"White41.jpg"	2	1
1	1	2	1	5	"blackRight"	"posLeft"	2	2	80	"expBlockCat"	"Black_eyes"	"Black"	"eyes"	1	0	470	5	3	"Black10.jpg"	2	1
1	1	2	1	5	"blackRight"	"posLeft"	2	2	81	"expBlockCat"	"White_eyes"	"White"	"eyes"	2	1	461	5	3	"White5.jpg"	2	1
1	1	2	1	5	"blackRight"	"posLeft"	2	2	82	"expBlockCat"	"White_eyes"	"White"	"eyes"	2	1	507	5	3	"White38.jpg"	2	1
1	1	2	1	5	"blackRight"	"posLeft"	2	2	83	"expBlockCat"	"White_eyes"	"White"	"eyes"	2	1	537	5	3	"White54.jpg"	2	1
1	1	2	1	5	"blackRight"	"posLeft"	2	2	84	"expBlockCat"	"Black_eyes"	"Black"	"eyes"	1	0	438	5	3	"Black29.jpg"	2	1
1	1	2	1	5	"blackRight"	"posLeft"	2	2	85	"expBlockCat"	"Black_eyes"	"Black"	"eyes"	1	0	492	5	3	"Black31.jpg"	2	1
1	1	2	1	5	"blackRight"	"posLeft"	2	2	86	"expBlockCat"	"White_eyes"	"White"	"eyes"	2	1	578	5	3	"White20.jpg"	2	1
1	1	2	1	5	"blackRight"	"posLeft"	2	2	87	"expBlockCat"	"White_forehead"	"White"	"forehead"	2	1	457	5	3	"White56.jpg"	2	1
1	1	2	1	5	"blackRight"	"posLeft"	2	2	88	"expBlockCat"	"White_forehead"	"White"	"forehead"	2	1	558	5	3	"White26.jpg"	2	1
1	1	2	1	5	"blackRight"	"posLeft"	2	2	89	"expBlockCat"	"Black_forehead"	"Black"	"forehead"	2	1	404	5	3	"Black24.jpg"	2	1
1	1	2	1	5	"blackRight"	"posLeft"	2	2	90	"expBlockCat"	"Black_eyes"	"Black"	"eyes"	1	0	699	5	3	"Black51.jpg"	2	1
1	1	2	1	5	"blackRight"	"posLeft"	2	2	91	"expBlockCat"	"Black_forehead"	"Black"	"forehead"	2	1	457	5	3	"Black5.jpg"	2	1
1	1	2	1	5	"blackRight"	"posLeft"	2	2	92	"expBlockCat"	"White_forehead"	"White"	"forehead"	1	0	335	5	3	"White3.jpg"	1	0
1	1	2	1	5	"blackRight"	"posLeft"	2	2	93	"expBlockCat"	"Black_forehead"	"Black"	"forehead"	2	1	405	5	3	"Black17.jpg"	2	1
1	1	2	1	5	"blackRight"	"posLeft"	2	2	94	"expBlockCat"	"White_eyes"	"White"	"eyes"	2	1	379	5	3	"White41.jpg"	2	1
1	1	2	1	5	"blackRight"	"posLeft"	2	2	95	"expBlockCat"	"Black_forehead"	"Black"	"forehead"	2	1	458	5	3	"Black33.jpg"	2	1
1	1	2	1	5	"blackRight"	"posLeft"	2	2	96	"expBlockCat"	"Black_forehead"	"Black"	"forehead"	2	1	424	5	3	"Black20.jpg"	2	1
1	1	2	1	5	"blackRight"	"posLeft"	2	2	97	"expBlockCat"	"Black_forehead"	"Black"	"forehead"	2	1	517	5	3	"Black50.jpg"	2	1
1	1	2	1	5	"blackRight"	"posLeft"	2	2	98	"expBlockCat"	"Black_eyes"	"Black"	"eyes"	1	0	395	5	3	"Black16.jpg"	2	1
1	1	2	1	5	"blackRight"	"posLeft"	2	2	99	"expBlockCat"	"White_eyes"	"White"	"eyes"	2	1	377	5	3	"White12.jpg"	2	1
1	1	2	1	5	"blackRight"	"posLeft"	2	2	100	"expBlockCat"	"White_eyes"	"White"	"eyes"	2	1	447	5	3	"White29.jpg"	2	1
1	1	2	1	5	"blackRight"	"posLeft"	2	2	101	"expBlockCat"	"White_eyes"	"White"	"eyes"	2	1	485	5	3	"White31.jpg"	2	1
1	1	2	1	5	"blackRight"	"posLeft"	2	2	102	"expBlockCat"	"White_forehead"	"White"	"forehead"	2	1	364	5	3	"White57.jpg"	2	1
1	1	2	1	5	"blackRight"	"posLeft"	2	2	103	"expBlockCat"	"White_eyes"	"White"	"eyes"	2	1	698	5	3	"White3.jpg"	2	1
1	1	2	1	5	"blackRight"	"posLeft"	2	2	104	"expBlockCat"	"Black_forehead"	"Black"	"forehead"	2	1	456	5	3	"Black36.jpg"	2	1
1	1	2	1	5	"blackRight"	"posLeft"	2	2	105	"expBlockCat"	"White_eyes"	"White"	"eyes"	2	1	622	5	3	"White17.jpg"	2	1
1	1	2	1	5	"blackRight"	"posLeft"	2	2	106	"expBlockCat"	"Black_eyes"	"Black"	"eyes"	1	0	500	5	3	"Black24.jpg"	2	1
1	1	2	1	5	"blackRight"	"posLeft"	2	2	107	"expBlockCat"	"White_eyes"	"White"	"eyes"	2	1	379	5	3	"White33.jpg"	2	1
1	1	2	1	5	"blackRight"	"posLeft"	2	2	108	"expBlockCat"	"Black_eyes"	"Black"	"eyes"	1	0	529	5	3	"Black22.jpg"	2	1
1	1	2	1	5	"blackRight"	"posLeft"	2	2	109	"expBlockCat"	"White_eyes"	"White"	"eyes"	2	1	447	5	3	"White57.jpg"	2	1
1	1	2	1	5	"blackRight"	"posLeft"	2	2	110	"expBlockCat"	"White_eyes"	"White"	"eyes"	2	1	533	5	3	"White18.jpg"	2	1
1	1	2	1	5	"blackRight"	"posLeft"	2	2	111	"expBlockCat"	"Black_forehead"	"Black"	"forehead"	2	1	531	5	3	"Black11.jpg"	2	1
1	1	2	1	5	"blackRight"	"posLeft"	2	2	112	"expBlockCat"	"Black_eyes"	"Black"	"eyes"	1	0	368	5	3	"Black1.jpg"	2	1
1	1	2	1	5	"blackRight"	"posLeft"	2	2	113	"expBlockCat"	"White_forehead"	"White"	"forehead"	2	1	398	5	3	"White8.jpg"	2	1
1	1	2	1	5	"blackRight"	"posLeft"	2	2	114	"expBlockCat"	"White_forehead"	"White"	"forehead"	2	1	435	5	3	"White24.jpg"	2	1
1	1	2	1	5	"blackRight"	"posLeft"	2	2	115	"expBlockCat"	"White_forehead"	"White"	"forehead"	2	1	505	5	3	"White2.jpg"	2	1
1	1	2	1	5	"blackRight"	"posLeft"	2	2	116	"expBlockCat"	"White_forehead"	"White"	"forehead"	2	1	623	5	3	"White6.jpg"	2	1
1	1	2	1	5	"blackRight"	"posLeft"	2	2	117	"expBlockCat"	"Black_forehead"	"Black"	"forehead"	2	1	597	5	3	"Black27.jpg"	2	1
1	1	2	1	5	"blackRight"	"posLeft"	2	2	118	"expBlockCat"	"Black_eyes"	"Black"	"eyes"	1	0	483	5	3	"Black36.jpg"	2	1
1	1	2	1	5	"blackRight"	"posLeft"	2	2	119	"expBlockCat"	"White_eyes"	"White"	"eyes"	2	1	265	5	3	"White8.jpg"	2	1
1	1	2	1	5	"blackRight"	"posLeft"	2	2	120	"expBlockCat"	"White_eyes"	"White"	"eyes"	2	1	591	5	3	"White26.jpg"	2	1
1	1	2	1	5	"blackRight"	"posLeft"	2	2	121	"expBlockCat"	"Black_forehead"	"Black"	"forehead"	2	1	501	5	3	"Black25.jpg"	2	1
1	1	2	1	5	"blackRight"	"posLeft"	2	2	122	"expBlockCat"	"Black_forehead"	"Black"	"forehead"	2	1	620	5	3	"Black21.jpg"	2	1
1	1	2	1	5	"blackRight"	"posLeft"	2	2	123	"expBlockCat"	"Black_forehead"	"Black"	"forehead"	2	1	794	5	3	"Black32.jpg"	2	1
1	1	2	1	5	"blackRight"	"posLeft"	2	2	124	"expBlockCat"	"Black_eyes"	"Black"	"eyes"	1	0	456	5	3	"Black23.jpg"	2	1
1	1	2	1	5	"blackRight"	"posLeft"	2	2	125	"expBlockCat"	"White_forehead"	"White"	"forehead"	2	1	366	5	3	"White54.jpg"	2	1
1	1	2	1	5	"blackRight"	"posLeft"	2	2	126	"expBlockCat"	"Black_eyes"	"Black"	"eyes"	1	0	587	5	3	"Black39.jpg"	2	1
1	1	2	1	5	"blackRight"	"posLeft"	2	2	127	"expBlockCat"	"White_forehead"	"White"	"forehead"	2	1	497	5	3	"White34.jpg"	2	1
1	1	2	1	5	"blackRight"	"posLeft"	2	2	128	"expBlockCat"	"Black_forehead"	"Black"	"forehead"	2	1	447	5	3	"Black13.jpg"	2	1
1	1	2	1	5	"blackRight"	"posLeft"	2	3	129	"expBlockCat"	"White_forehead"	"White"	"forehead"	2	1	434	5	3	"White6.jpg"	2	1
1	1	2	1	5	"blackRight"	"posLeft"	2	3	130	"expBlockCat"	"Black_eyes"	"Black"	"eyes"	1	0	352	5	3	"Black36.jpg"	2	1
1	1	2	1	5	"blackRight"	"posLeft"	2	3	131	"expBlockCat"	"White_eyes"	"White"	"eyes"	2	1	438	5	3	"White12.jpg"	2	1
1	1	2	1	5	"blackRight"	"posLeft"	2	3	132	"expBlockCat"	"White_eyes"	"White"	"eyes"	2	1	564	5	3	"White38.jpg"	2	1
1	1	2	1	5	"blackRight"	"posLeft"	2	3	133	"expBlockCat"	"White_eyes"	"White"	"eyes"	2	1	474	5	3	"White3.jpg"	2	1
1	1	2	1	5	"blackRight"	"posLeft"	2	3	134	"expBlockCat"	"Black_eyes"	"Black"	"eyes"	2	1	368	5	3	"Black16.jpg"	1	0
1	1	2	1	5	"blackRight"	"posLeft"	2	3	135	"expBlockCat"	"Black_eyes"	"Black"	"eyes"	1	0	351	5	3	"Black6.jpg"	2	1
1	1	2	1	5	"blackRight"	"posLeft"	2	3	136	"expBlockCat"	"Black_forehead"	"Black"	"forehead"	2	1	445	5	3	"Black23.jpg"	2	1
1	1	2	1	5	"blackRight"	"posLeft"	2	3	137	"expBlockCat"	"White_forehead"	"White"	"forehead"	2	1	507	5	3	"White10.jpg"	2	1
1	1	2	1	5	"blackRight"	"posLeft"	2	3	138	"expBlockCat"	"Black_eyes"	"Black"	"eyes"	1	0	337	5	3	"Black24.jpg"	2	1
1	1	2	1	5	"blackRight"	"posLeft"	2	3	139	"expBlockCat"	"Black_forehead"	"Black"	"forehead"	2	1	455	5	3	"Black29.jpg"	2	1
1	1	2	1	5	"blackRight"	"posLeft"	2	3	140	"expBlockCat"	"White_eyes"	"White"	"eyes"	2	1	550	5	3	"White10.jpg"	2	1
1	1	2	1	5	"blackRight"	"posLeft"	2	3	141	"expBlockCat"	"White_eyes"	"White"	"eyes"	2	1	524	5	3	"White6.jpg"	2	1
1	1	2	1	5	"blackRight"	"posLeft"	2	3	142	"expBlockCat"	"White_eyes"	"White"	"eyes"	1	0	698	5	3	"White34.jpg"	1	0
1	1	2	1	5	"blackRight"	"posLeft"	2	3	143	"expBlockCat"	"Black_forehead"	"Black"	"forehead"	2	1	415	5	3	"Black8.jpg"	2	1
1	1	2	1	5	"blackRight"	"posLeft"	2	3	144	"expBlockCat"	"White_eyes"	"White"	"eyes"	2	1	590	5	3	"White2.jpg"	2	1
1	1	2	1	5	"blackRight"	"posLeft"	2	3	145	"expBlockCat"	"White_eyes"	"White"	"eyes"	2	1	540	5	3	"White20.jpg"	2	1
1	1	2	1	5	"blackRight"	"posLeft"	2	3	146	"expBlockCat"	"Black_forehead"	"Black"	"forehead"	2	1	538	5	3	"Black6.jpg"	2	1
1	1	2	1	5	"blackRight"	"posLeft"	2	3	147	"expBlockCat"	"Black_eyes"	"Black"	"eyes"	1	0	480	5	3	"Black13.jpg"	2	1
1	1	2	1	5	"blackRight"	"posLeft"	2	3	148	"expBlockCat"	"Black_forehead"	"Black"	"forehead"	2	1	359	5	3	"Black36.jpg"	2	1
1	1	2	1	5	"blackRight"	"posLeft"	2	3	149	"expBlockCat"	"White_forehead"	"White"	"forehead"	2	1	501	5	3	"White16.jpg"	2	1
1	1	2	1	5	"blackRight"	"posLeft"	2	3	150	"expBlockCat"	"White_forehead"	"White"	"forehead"	1	0	379	5	3	"White31.jpg"	1	0
1	1	2	1	5	"blackRight"	"posLeft"	2	3	151	"expBlockCat"	"Black_eyes"	"Black"	"eyes"	2	1	409	5	3	"Black15.jpg"	1	0
1	1	2	1	5	"blackRight"	"posLeft"	2	3	152	"expBlockCat"	"White_eyes"	"White"	"eyes"	2	1	471	5	3	"White57.jpg"	2	1
1	1	2	1	5	"blackRight"	"posLeft"	2	3	153	"expBlockCat"	"White_forehead"	"White"	"forehead"	2	1	406	5	3	"White57.jpg"	2	1
1	1	2	1	5	"blackRight"	"posLeft"	2	3	154	"expBlockCat"	"White_eyes"	"White"	"eyes"	2	1	436	5	3	"White5.jpg"	2	1
1	1	2	1	5	"blackRight"	"posLeft"	2	3	155	"expBlockCat"	"Black_forehead"	"Black"	"forehead"	2	1	626	5	3	"Black51.jpg"	2	1
1	1	2	1	5	"blackRight"	"posLeft"	2	3	156	"expBlockCat"	"White_eyes"	"White"	"eyes"	2	1	511	5	3	"White17.jpg"	2	1
1	1	2	1	5	"blackRight"	"posLeft"	2	3	157	"expBlockCat"	"White_eyes"	"White"	"eyes"	2	1	478	5	3	"White35.jpg"	2	1
1	1	2	1	5	"blackRight"	"posLeft"	2	3	158	"expBlockCat"	"White_eyes"	"White"	"eyes"	1	0	348	5	3	"White23.jpg"	1	0
1	1	2	1	5	"blackRight"	"posLeft"	2	3	159	"expBlockCat"	"White_eyes"	"White"	"eyes"	2	1	442	5	3	"White56.jpg"	2	1
1	1	2	1	5	"blackRight"	"posLeft"	2	3	160	"expBlockCat"	"White_eyes"	"White"	"eyes"	2	1	400	5	3	"White8.jpg"	2	1
1	1	2	1	5	"blackRight"	"posLeft"	2	3	161	"expBlockCat"	"Black_eyes"	"Black"	"eyes"	1	0	366	5	3	"Black26.jpg"	2	1
1	1	2	1	5	"blackRight"	"posLeft"	2	3	162	"expBlockCat"	"Black_forehead"	"Black"	"forehead"	2	1	517	5	3	"Black1.jpg"	2	1
1	1	2	1	5	"blackRight"	"posLeft"	2	3	163	"expBlockCat"	"White_forehead"	"White"	"forehead"	2	1	443	5	3	"White14.jpg"	2	1
1	1	2	1	5	"blackRight"	"posLeft"	2	3	164	"expBlockCat"	"Black_eyes"	"Black"	"eyes"	1	0	433	5	3	"Black32.jpg"	2	1
1	1	2	1	5	"blackRight"	"posLeft"	2	3	165	"expBlockCat"	"Black_forehead"	"Black"	"forehead"	2	1	375	5	3	"Black17.jpg"	2	1
1	1	2	1	5	"blackRight"	"posLeft"	2	3	166	"expBlockCat"	"Black_eyes"	"Black"	"eyes"	1	0	333	5	3	"Black25.jpg"	2	1
1	1	2	1	5	"blackRight"	"posLeft"	2	3	167	"expBlockCat"	"Black_forehead"	"Black"	"forehead"	2	1	292	5	3	"Black33.jpg"	2	1
1	1	2	1	5	"blackRight"	"posLeft"	2	3	168	"expBlockCat"	"White_eyes"	"White"	"eyes"	2	1	354	5	3	"White29.jpg"	2	1
1	1	2	1	5	"blackRight"	"posLeft"	2	3	169	"expBlockCat"	"White_forehead"	"White"	"forehead"	1	0	311	5	3	"White33.jpg"	1	0
1	1	2	1	5	"blackRight"	"posLeft"	2	3	170	"expBlockCat"	"Black_eyes"	"Black"	"eyes"	1	0	550	5	3	"Black27.jpg"	2	1
1	1	2	1	5	"blackRight"	"posLeft"	2	3	171	"expBlockCat"	"White_forehead"	"White"	"forehead"	2	1	332	5	3	"White5.jpg"	2	1
1	1	2	1	5	"blackRight"	"posLeft"	2	3	172	"expBlockCat"	"White_forehead"	"White"	"forehead"	1	0	354	5	3	"White38.jpg"	1	0
1	1	2	1	5	"blackRight"	"posLeft"	2	3	173	"expBlockCat"	"Black_forehead"	"Black"	"forehead"	2	1	432	5	3	"Black16.jpg"	2	1
1	1	2	1	5	"blackRight"	"posLeft"	2	3	174	"expBlockCat"	"White_forehead"	"White"	"forehead"	2	1	446	5	3	"White32.jpg"	2	1
1	1	2	1	5	"blackRight"	"posLeft"	2	3	175	"expBlockCat"	"Black_forehead"	"Black"	"forehead"	2	1	453	5	3	"Black2.jpg"	2	1
1	1	2	1	5	"blackRight"	"posLeft"	2	3	176	"expBlockCat"	"Black_forehead"	"Black"	"forehead"	2	1	563	5	3	"Black32.jpg"	2	1
1	1	2	1	5	"blackRight"	"posLeft"	2	3	177	"expBlockCat"	"White_forehead"	"White"	"forehead"	2	1	440	5	3	"White26.jpg"	2	1
1	1	2	1	5	"blackRight"	"posLeft"	2	3	178	"expBlockCat"	"White_forehead"	"White"	"forehead"	2	1	486	5	3	"White34.jpg"	2	1
1	1	2	1	5	"blackRight"	"posLeft"	2	3	179	"expBlockCat"	"White_eyes"	"White"	"eyes"	2	1	596	5	3	"White9.jpg"	2	1
1	1	2	1	5	"blackRight"	"posLeft"	2	3	180	"expBlockCat"	"Black_eyes"	"Black"	"eyes"	1	0	475	5	3	"Black5.jpg"	2	1
1	1	2	1	5	"blackRight"	"posLeft"	2	3	181	"expBlockCat"	"White_eyes"	"White"	"eyes"	2	1	545	5	3	"White22.jpg"	2	1
1	1	2	1	5	"blackRight"	"posLeft"	2	3	182	"expBlockCat"	"Black_eyes"	"Black"	"eyes"	1	0	535	5	3	"Black17.jpg"	2	1
1	1	2	1	5	"blackRight"	"posLeft"	2	3	183	"expBlockCat"	"Black_forehead"	"Black"	"forehead"	2	1	605	5	3	"Black20.jpg"	2	1
1	1	2	1	5	"blackRight"	"posLeft"	2	3	184	"expBlockCat"	"White_eyes"	"White"	"eyes"	2	1	499	5	3	"White21.jpg"	2	1
1	1	2	1	5	"blackRight"	"posLeft"	2	3	185	"expBlockCat"	"Black_forehead"	"Black"	"forehead"	2	1	386	5	3	"Black27.jpg"	2	1
1	1	2	1	5	"blackRight"	"posLeft"	2	3	186	"expBlockCat"	"Black_eyes"	"Black"	"eyes"	1	0	408	5	3	"Black11.jpg"	2	1
1	1	2	1	5	"blackRight"	"posLeft"	2	3	187	"expBlockCat"	"White_eyes"	"White"	"eyes"	2	1	518	5	3	"White1.jpg"	2	1
1	1	2	1	5	"blackRight"	"posLeft"	2	3	188	"expBlockCat"	"White_forehead"	"White"	"forehead"	2	1	540	5	3	"White21.jpg"	2	1
1	1	2	1	5	"blackRight"	"posLeft"	2	3	189	"expBlockCat"	"White_forehead"	"White"	"forehead"	2	1	402	5	3	"White12.jpg"	2	1
1	1	2	1	5	"blackRight"	"posLeft"	2	3	190	"expBlockCat"	"White_forehead"	"White"	"forehead"	2	1	504	5	3	"White24.jpg"	2	1
1	1	2	1	5	"blackRight"	"posLeft"	2	3	191	"expBlockCat"	"White_forehead"	"White"	"forehead"	2	1	502	5	3	"White2.jpg"	2	1
1	1	2	1	5	"blackRight"	"posLeft"	2	3	192	"expBlockCat"	"Black_eyes"	"Black"	"eyes"	1	0	444	5	3	"Black50.jpg"	2	1
1	1	2	1	5	"blackRight"	"posLeft"	2	3	193	"expBlockCat"	"Black_eyes"	"Black"	"eyes"	1	0	411	5	3	"Black3.jpg"	2	1
1	1	2	1	5	"blackRight"	"posLeft"	2	3	194	"expBlockCat"	"Black_forehead"	"Black"	"forehead"	2	1	457	5	3	"Black12.jpg"	2	1
1	1	2	1	5	"blackRight"	"posLeft"	2	3	195	"expBlockCat"	"White_eyes"	"White"	"eyes"	2	1	575	5	3	"White31.jpg"	2	1
1	1	2	1	5	"blackRight"	"posLeft"	2	3	196	"expBlockCat"	"White_forehead"	"White"	"forehead"	2	1	444	5	3	"White30.jpg"	2	1
1	1	2	1	5	"blackRight"	"posLeft"	2	3	197	"expBlockCat"	"White_forehead"	"White"	"forehead"	2	1	539	5	3	"White41.jpg"	2	1
1	1	2	1	5	"blackRight"	"posLeft"	2	3	198	"expBlockCat"	"Black_forehead"	"Black"	"forehead"	2	1	393	5	3	"Black15.jpg"	2	1
1	1	2	1	5	"blackRight"	"posLeft"	2	3	199	"expBlockCat"	"White_forehead"	"White"	"forehead"	2	1	495	5	3	"White56.jpg"	2	1
1	1	2	1	5	"blackRight"	"posLeft"	2	3	200	"expBlockCat"	"White_forehead"	"White"	"forehead"	2	1	365	5	3	"White29.jpg"	2	1
1	1	2	1	5	"blackRight"	"posLeft"	2	3	201	"expBlockCat"	"Black_eyes"	"Black"	"eyes"	1	0	491	5	3	"Black1.jpg"	2	1
1	1	2	1	5	"blackRight"	"posLeft"	2	3	202	"expBlockCat"	"Black_eyes"	"Black"	"eyes"	1	0	409	5	3	"Black31.jpg"	2	1
1	1	2	1	5	"blackRight"	"posLeft"	2	3	203	"expBlockCat"	"White_eyes"	"White"	"eyes"	2	1	423	5	3	"White14.jpg"	2	1
1	1	2	1	5	"blackRight"	"posLeft"	2	3	204	"expBlockCat"	"White_eyes"	"White"	"eyes"	2	1	357	5	3	"White30.jpg"	2	1
1	1	2	1	5	"blackRight"	"posLeft"	2	3	205	"expBlockCat"	"White_eyes"	"White"	"eyes"	2	1	387	5	3	"White11.jpg"	2	1
1	1	2	1	5	"blackRight"	"posLeft"	2	3	206	"expBlockCat"	"White_eyes"	"White"	"eyes"	2	1	601	5	3	"White54.jpg"	2	1
1	1	2	1	5	"blackRight"	"posLeft"	2	3	207	"expBlockCat"	"Black_forehead"	"Black"	"forehead"	2	1	327	5	3	"Black22.jpg"	2	1
1	1	2	1	5	"blackRight"	"posLeft"	2	3	208	"expBlockCat"	"White_eyes"	"White"	"eyes"	2	1	598	5	3	"White26.jpg"	2	1
1	1	2	1	5	"blackRight"	"posLeft"	2	3	209	"expBlockCat"	"Black_eyes"	"Black"	"eyes"	1	0	556	5	3	"Black12.jpg"	2	1
1	1	2	1	5	"blackRight"	"posLeft"	2	3	210	"expBlockCat"	"Black_eyes"	"Black"	"eyes"	1	0	554	5	3	"Black21.jpg"	2	1
1	1	2	1	5	"blackRight"	"posLeft"	2	3	211	"expBlockCat"	"Black_forehead"	"Black"	"forehead"	2	1	408	5	3	"Black50.jpg"	2	1
1	1	2	1	5	"blackRight"	"posLeft"	2	3	212	"expBlockCat"	"White_eyes"	"White"	"eyes"	2	1	486	5	3	"White24.jpg"	2	1
1	1	2	1	5	"blackRight"	"posLeft"	2	3	213	"expBlockCat"	"White_forehead"	"White"	"forehead"	1	0	381	5	3	"White35.jpg"	1	0
1	1	2	1	5	"blackRight"	"posLeft"	2	3	214	"expBlockCat"	"Black_forehead"	"Black"	"forehead"	2	1	483	5	3	"Black40.jpg"	2	1
1	1	2	1	5	"blackRight"	"posLeft"	2	3	215	"expBlockCat"	"White_forehead"	"White"	"forehead"	1	0	376	5	3	"White11.jpg"	1	0
1	1	2	1	5	"blackRight"	"posLeft"	2	3	216	"expBlockCat"	"White_forehead"	"White"	"forehead"	2	1	358	5	3	"White22.jpg"	2	1
1	1	2	1	5	"blackRight"	"posLeft"	2	3	217	"expBlockCat"	"Black_eyes"	"Black"	"eyes"	1	0	613	5	3	"Black8.jpg"	2	1
1	1	2	1	5	"blackRight"	"posLeft"	2	3	218	"expBlockCat"	"Black_forehead"	"Black"	"forehead"	2	1	530	5	3	"Black39.jpg"	2	1
1	1	2	1	5	"blackRight"	"posLeft"	2	3	219	"expBlockCat"	"White_forehead"	"White"	"forehead"	2	1	496	5	3	"White3.jpg"	2	1
1	1	2	1	5	"blackRight"	"posLeft"	2	3	220	"expBlockCat"	"Black_forehead"	"Black"	"forehead"	2	1	671	5	3	"Black31.jpg"	2	1
1	1	2	1	5	"blackRight"	"posLeft"	2	3	221	"expBlockCat"	"Black_forehead"	"Black"	"forehead"	2	1	509	5	3	"Black21.jpg"	2	1
1	1	2	1	5	"blackRight"	"posLeft"	2	3	222	"expBlockCat"	"Black_forehead"	"Black"	"forehead"	2	1	491	5	3	"Black9.jpg"	2	1
1	1	2	1	5	"blackRight"	"posLeft"	2	3	223	"expBlockCat"	"Black_eyes"	"Black"	"eyes"	1	0	449	5	3	"Black9.jpg"	2	1
1	1	2	1	5	"blackRight"	"posLeft"	2	3	224	"expBlockCat"	"White_forehead"	"White"	"forehead"	2	1	414	5	3	"White1.jpg"	2	1
1	1	2	1	5	"blackRight"	"posLeft"	2	3	225	"expBlockCat"	"Black_forehead"	"Black"	"forehead"	2	1	437	5	3	"Black5.jpg"	2	1
1	1	2	1	5	"blackRight"	"posLeft"	2	3	226	"expBlockCat"	"Black_eyes"	"Black"	"eyes"	1	0	412	5	3	"Black40.jpg"	2	1
1	1	2	1	5	"blackRight"	"posLeft"	2	3	227	"expBlockCat"	"White_eyes"	"White"	"eyes"	2	1	553	5	3	"White41.jpg"	2	1
1	1	2	1	5	"blackRight"	"posLeft"	2	3	228	"expBlockCat"	"Black_eyes"	"Black"	"eyes"	1	0	471	5	3	"Black10.jpg"	2	1
1	1	2	1	5	"blackRight"	"posLeft"	2	3	229	"expBlockCat"	"Black_eyes"	"Black"	"eyes"	1	0	413	5	3	"Black29.jpg"	2	1
1	1	2	1	5	"blackRight"	"posLeft"	2	3	230	"expBlockCat"	"Black_eyes"	"Black"	"eyes"	1	0	572	5	3	"Black20.jpg"	2	1
1	1	2	1	5	"blackRight"	"posLeft"	2	3	231	"expBlockCat"	"White_eyes"	"White"	"eyes"	2	1	665	5	3	"White32.jpg"	2	1
1	1	2	1	5	"blackRight"	"posLeft"	2	3	232	"expBlockCat"	"Black_eyes"	"Black"	"eyes"	1	0	495	5	3	"Black33.jpg"	2	1
1	1	2	1	5	"blackRight"	"posLeft"	2	3	233	"expBlockCat"	"White_forehead"	"White"	"forehead"	2	1	598	5	3	"White18.jpg"	2	1
1	1	2	1	5	"blackRight"	"posLeft"	2	3	234	"expBlockCat"	"White_forehead"	"White"	"forehead"	2	1	540	5	3	"White23.jpg"	2	1
1	1	2	1	5	"blackRight"	"posLeft"	2	3	235	"expBlockCat"	"Black_forehead"	"Black"	"forehead"	2	1	554	5	3	"Black24.jpg"	2	1
1	1	2	1	5	"blackRight"	"posLeft"	2	3	236	"expBlockCat"	"White_forehead"	"White"	"forehead"	2	1	456	5	3	"White9.jpg"	2	1
1	1	2	1	5	"blackRight"	"posLeft"	2	3	237	"expBlockCat"	"White_eyes"	"White"	"eyes"	1	0	446	5	3	"White16.jpg"	1	0
1	1	2	1	5	"blackRight"	"posLeft"	2	3	238	"expBlockCat"	"Black_forehead"	"Black"	"forehead"	2	1	516	5	3	"Black7.jpg"	2	1
1	1	2	1	5	"blackRight"	"posLeft"	2	3	239	"expBlockCat"	"Black_eyes"	"Black"	"eyes"	1	0	547	5	3	"Black23.jpg"	2	1
1	1	2	1	5	"blackRight"	"posLeft"	2	3	240	"expBlockCat"	"Black_forehead"	"Black"	"forehead"	2	1	673	5	3	"Black26.jpg"	2	1
1	1	2	1	5	"blackRight"	"posLeft"	2	3	241	"expBlockCat"	"Black_forehead"	"Black"	"forehead"	2	1	551	5	3	"Black10.jpg"	2	1
1	1	2	1	5	"blackRight"	"posLeft"	2	3	242	"expBlockCat"	"Black_eyes"	"Black"	"eyes"	1	0	477	5	3	"Black2.jpg"	2	1
1	1	2	1	5	"blackRight"	"posLeft"	2	3	243	"expBlockCat"	"Black_forehead"	"Black"	"forehead"	2	1	420	5	3	"Black25.jpg"	2	1
1	1	2	1	5	"blackRight"	"posLeft"	2	3	244	"expBlockCat"	"White_forehead"	"White"	"forehead"	2	1	394	5	3	"White17.jpg"	2	1
1	1	2	1	5	"blackRight"	"posLeft"	2	3	245	"expBlockCat"	"Black_forehead"	"Black"	"forehead"	2	1	456	5	3	"Black3.jpg"	2	1
1	1	2	1	5	"blackRight"	"posLeft"	2	3	246	"expBlockCat"	"White_forehead"	"White"	"forehead"	2	1	398	5	3	"White54.jpg"	2	1
1	1	2	1	5	"blackRight"	"posLeft"	2	3	247	"expBlockCat"	"Black_forehead"	"Black"	"forehead"	2	1	468	5	3	"Black13.jpg"	2	1
1	1	2	1	5	"blackRight"	"posLeft"	2	3	248	"expBlockCat"	"Black_forehead"	"Black"	"forehead"	2	1	410	5	3	"Black11.jpg"	2	1
1	1	2	1	5	"blackRight"	"posLeft"	2	3	249	"expBlockCat"	"White_forehead"	"White"	"forehead"	2	1	441	5	3	"White8.jpg"	2	1
1	1	2	1	5	"blackRight"	"posLeft"	2	3	250	"expBlockCat"	"White_eyes"	"White"	"eyes"	2	1	399	5	3	"White33.jpg"	2	1
1	1	2	1	5	"blackRight"	"posLeft"	2	3	251	"expBlockCat"	"Black_eyes"	"Black"	"eyes"	1	0	372	5	3	"Black39.jpg"	2	1
1	1	2	1	5	"blackRight"	"posLeft"	2	3	252	"expBlockCat"	"White_forehead"	"White"	"forehead"	2	1	346	5	3	"White20.jpg"	2	1
1	1	2	1	5	"blackRight"	"posLeft"	2	3	253	"expBlockCat"	"Black_eyes"	"Black"	"eyes"	1	0	504	5	3	"Black51.jpg"	2	1
1	1	2	1	5	"blackRight"	"posLeft"	2	3	254	"expBlockCat"	"Black_eyes"	"Black"	"eyes"	1	0	438	5	3	"Black22.jpg"	2	1
1	1	2	1	5	"blackRight"	"posLeft"	2	3	255	"expBlockCat"	"Black_eyes"	"Black"	"eyes"	1	0	501	5	3	"Black7.jpg"	2	1
1	1	2	1	5	"blackRight"	"posLeft"	2	3	256	"expBlockCat"	"White_eyes"	"White"	"eyes"	2	1	523	5	3	"White18.jpg"	2	1
10	5	2	2	5	"blackLeft"	"posLeft"	2	1	1	"practiceBlockCat"	"White_forehead"	"White"	"forehead"	2	1	603	5	5	"White62.jpg"	2	1
10	5	2	2	5	"blackLeft"	"posLeft"	2	1	2	"practiceBlockCat"	"Black_forehead"	"Black"	"forehead"	2	1	442	5	5	"Black68.jpg"	2	1
10	5	2	2	5	"blackLeft"	"posLeft"	2	1	3	"practiceBlockCat"	"White_eyes"	"White"	"eyes"	2	1	792	5	5	"White70.jpg"	2	1
10	5	2	2	5	"blackLeft"	"posLeft"	2	1	4	"practiceBlockCat"	"White_forehead"	"White"	"forehead"	2	1	551	5	5	"White67.jpg"	2	1
10	5	2	2	5	"blackLeft"	"posLeft"	2	1	5	"practiceBlockCat"	"Black_eyes"	"Black"	"eyes"	1	0	525	5	5	"Black67.jpg"	2	1
10	5	2	2	5	"blackLeft"	"posLeft"	2	1	6	"practiceBlockCat"	"Black_eyes"	"Black"	"eyes"	1	0	540	5	5	"Black63.jpg"	2	1
10	5	2	2	5	"blackLeft"	"posLeft"	2	1	7	"practiceBlockCat"	"Black_forehead"	"Black"	"forehead"	2	1	427	5	5	"Black70.jpg"	2	1
10	5	2	2	5	"blackLeft"	"posLeft"	2	1	8	"practiceBlockCat"	"White_eyes"	"White"	"eyes"	1	0	626	5	5	"White66.jpg"	1	0
10	5	2	2	5	"blackLeft"	"posLeft"	2	2	1	"expBlockCat"	"Black_forehead"	"Black"	"forehead"	2	1	503	5	5	"Black17.jpg"	2	1
10	5	2	2	5	"blackLeft"	"posLeft"	2	2	2	"expBlockCat"	"White_eyes"	"White"	"eyes"	2	1	653	5	5	"White29.jpg"	2	1
10	5	2	2	5	"blackLeft"	"posLeft"	2	2	3	"expBlockCat"	"White_eyes"	"White"	"eyes"	2	1	611	5	5	"White56.jpg"	2	1
10	5	2	2	5	"blackLeft"	"posLeft"	2	2	4	"expBlockCat"	"White_eyes"	"White"	"eyes"	2	1	473	5	5	"White32.jpg"	2	1
10	5	2	2	5	"blackLeft"	"posLeft"	2	2	5	"expBlockCat"	"Black_eyes"	"Black"	"eyes"	1	0	535	5	5	"Black24.jpg"	2	1
10	5	2	2	5	"blackLeft"	"posLeft"	2	2	6	"expBlockCat"	"Black_forehead"	"Black"	"forehead"	2	1	477	5	5	"Black1.jpg"	2	1
10	5	2	2	5	"blackLeft"	"posLeft"	2	2	7	"expBlockCat"	"White_eyes"	"White"	"eyes"	2	1	627	5	5	"White12.jpg"	2	1
10	5	2	2	5	"blackLeft"	"posLeft"	2	2	8	"expBlockCat"	"Black_forehead"	"Black"	"forehead"	2	1	433	5	5	"Black23.jpg"	2	1
10	5	2	2	5	"blackLeft"	"posLeft"	2	2	9	"expBlockCat"	"White_eyes"	"White"	"eyes"	2	1	503	5	5	"White34.jpg"	2	1
10	5	2	2	5	"blackLeft"	"posLeft"	2	2	10	"expBlockCat"	"Black_eyes"	"Black"	"eyes"	1	0	357	5	5	"Black23.jpg"	2	1
10	5	2	2	5	"blackLeft"	"posLeft"	2	2	11	"expBlockCat"	"White_eyes"	"White"	"eyes"	2	1	443	5	5	"White38.jpg"	2	1
10	5	2	2	5	"blackLeft"	"posLeft"	2	2	12	"expBlockCat"	"Black_eyes"	"Black"	"eyes"	1	0	282	5	5	"Black40.jpg"	2	1
10	5	2	2	5	"blackLeft"	"posLeft"	2	2	13	"expBlockCat"	"White_forehead"	"White"	"forehead"	2	1	391	5	5	"White26.jpg"	2	1
10	5	2	2	5	"blackLeft"	"posLeft"	2	2	14	"expBlockCat"	"White_eyes"	"White"	"eyes"	2	1	437	5	5	"White21.jpg"	2	1
10	5	2	2	5	"blackLeft"	"posLeft"	2	2	15	"expBlockCat"	"White_forehead"	"White"	"forehead"	2	1	378	5	5	"White33.jpg"	2	1
10	5	2	2	5	"blackLeft"	"posLeft"	2	2	16	"expBlockCat"	"Black_forehead"	"Black"	"forehead"	2	1	496	5	5	"Black40.jpg"	2	1
10	5	2	2	5	"blackLeft"	"posLeft"	2	2	17	"expBlockCat"	"White_eyes"	"White"	"eyes"	2	1	430	5	5	"White10.jpg"	2	1
10	5	2	2	5	"blackLeft"	"posLeft"	2	2	18	"expBlockCat"	"Black_eyes"	"Black"	"eyes"	1	0	452	5	5	"Black27.jpg"	2	1
10	5	2	2	5	"blackLeft"	"posLeft"	2	2	19	"expBlockCat"	"Black_forehead"	"Black"	"forehead"	2	1	441	5	5	"Black50.jpg"	2	1
10	5	2	2	5	"blackLeft"	"posLeft"	2	2	20	"expBlockCat"	"White_forehead"	"White"	"forehead"	2	1	392	5	5	"White18.jpg"	2	1
10	5	2	2	5	"blackLeft"	"posLeft"	2	2	21	"expBlockCat"	"White_forehead"	"White"	"forehead"	2	1	629	5	5	"White16.jpg"	2	1
10	5	2	2	5	"blackLeft"	"posLeft"	2	2	22	"expBlockCat"	"Black_forehead"	"Black"	"forehead"	2	1	451	5	5	"Black32.jpg"	2	1
10	5	2	2	5	"blackLeft"	"posLeft"	2	2	23	"expBlockCat"	"Black_eyes"	"Black"	"eyes"	1	0	466	5	5	"Black9.jpg"	2	1
10	5	2	2	5	"blackLeft"	"posLeft"	2	2	24	"expBlockCat"	"Black_forehead"	"Black"	"forehead"	2	1	439	5	5	"Black6.jpg"	2	1
10	5	2	2	5	"blackLeft"	"posLeft"	2	2	25	"expBlockCat"	"White_eyes"	"White"	"eyes"	2	1	493	5	5	"White57.jpg"	2	1
10	5	2	2	5	"blackLeft"	"posLeft"	2	2	26	"expBlockCat"	"White_forehead"	"White"	"forehead"	2	1	498	5	5	"White5.jpg"	2	1
10	5	2	2	5	"blackLeft"	"posLeft"	2	2	27	"expBlockCat"	"Black_eyes"	"Black"	"eyes"	1	0	488	5	5	"Black2.jpg"	2	1
10	5	2	2	5	"blackLeft"	"posLeft"	2	2	28	"expBlockCat"	"Black_forehead"	"Black"	"forehead"	2	1	398	5	5	"Black29.jpg"	2	1
10	5	2	2	5	"blackLeft"	"posLeft"	2	2	29	"expBlockCat"	"Black_forehead"	"Black"	"forehead"	2	1	372	5	5	"Black7.jpg"	2	1
10	5	2	2	5	"blackLeft"	"posLeft"	2	2	30	"expBlockCat"	"White_forehead"	"White"	"forehead"	2	1	554	5	5	"White35.jpg"	2	1
10	5	2	2	5	"blackLeft"	"posLeft"	2	2	31	"expBlockCat"	"White_forehead"	"White"	"forehead"	2	1	504	5	5	"White11.jpg"	2	1
10	5	2	2	5	"blackLeft"	"posLeft"	2	2	32	"expBlockCat"	"White_forehead"	"White"	"forehead"	2	1	478	5	5	"White56.jpg"	2	1
10	5	2	2	5	"blackLeft"	"posLeft"	2	2	33	"expBlockCat"	"Black_eyes"	"Black"	"eyes"	1	0	524	5	5	"Black7.jpg"	2	1
10	5	2	2	5	"blackLeft"	"posLeft"	2	2	34	"expBlockCat"	"Black_forehead"	"Black"	"forehead"	2	1	514	5	5	"Black26.jpg"	2	1
10	5	2	2	5	"blackLeft"	"posLeft"	2	2	35	"expBlockCat"	"White_eyes"	"White"	"eyes"	2	1	415	5	5	"White54.jpg"	2	1
10	5	2	2	5	"blackLeft"	"posLeft"	2	2	36	"expBlockCat"	"White_eyes"	"White"	"eyes"	2	1	494	5	5	"White6.jpg"	2	1
10	5	2	2	5	"blackLeft"	"posLeft"	2	2	37	"expBlockCat"	"Black_forehead"	"Black"	"forehead"	2	1	587	5	5	"Black27.jpg"	2	1
10	5	2	2	5	"blackLeft"	"posLeft"	2	2	38	"expBlockCat"	"Black_forehead"	"Black"	"forehead"	2	1	569	5	5	"Black16.jpg"	2	1
10	5	2	2	5	"blackLeft"	"posLeft"	2	2	39	"expBlockCat"	"Black_eyes"	"Black"	"eyes"	1	0	392	5	5	"Black29.jpg"	2	1
10	5	2	2	5	"blackLeft"	"posLeft"	2	2	40	"expBlockCat"	"Black_eyes"	"Black"	"eyes"	1	0	405	5	5	"Black33.jpg"	2	1
10	5	2	2	5	"blackLeft"	"posLeft"	2	2	41	"expBlockCat"	"Black_eyes"	"Black"	"eyes"	1	0	363	5	5	"Black32.jpg"	2	1
10	5	2	2	5	"blackLeft"	"posLeft"	2	2	42	"expBlockCat"	"Black_eyes"	"Black"	"eyes"	1	0	384	5	5	"Black39.jpg"	2	1
10	5	2	2	5	"blackLeft"	"posLeft"	2	2	43	"expBlockCat"	"White_forehead"	"White"	"forehead"	2	1	422	5	5	"White21.jpg"	2	1
10	5	2	2	5	"blackLeft"	"posLeft"	2	2	44	"expBlockCat"	"White_forehead"	"White"	"forehead"	2	1	452	5	5	"White17.jpg"	2	1
10	5	2	2	5	"blackLeft"	"posLeft"	2	2	45	"expBlockCat"	"White_forehead"	"White"	"forehead"	3	0	0	5	5	"White23.jpg"	3	0
10	5	2	2	5	"blackLeft"	"posLeft"	2	2	46	"expBlockCat"	"Black_eyes"	"Black"	"eyes"	1	0	408	5	5	"Black21.jpg"	2	1
10	5	2	2	5	"blackLeft"	"posLeft"	2	2	47	"expBlockCat"	"Black_eyes"	"Black"	"eyes"	1	0	543	5	5	"Black6.jpg"	2	1
10	5	2	2	5	"blackLeft"	"posLeft"	2	2	48	"expBlockCat"	"White_forehead"	"White"	"forehead"	2	1	580	5	5	"White6.jpg"	2	1
10	5	2	2	5	"blackLeft"	"posLeft"	2	2	49	"expBlockCat"	"Black_eyes"	"Black"	"eyes"	1	0	499	5	5	"Black12.jpg"	2	1
10	5	2	2	5	"blackLeft"	"posLeft"	2	2	50	"expBlockCat"	"White_eyes"	"White"	"eyes"	2	1	408	5	5	"White8.jpg"	2	1
10	5	2	2	5	"blackLeft"	"posLeft"	2	2	51	"expBlockCat"	"White_eyes"	"White"	"eyes"	2	1	430	5	5	"White31.jpg"	2	1
10	5	2	2	5	"blackLeft"	"posLeft"	2	2	52	"expBlockCat"	"White_eyes"	"White"	"eyes"	2	1	541	5	5	"White5.jpg"	2	1
10	5	2	2	5	"blackLeft"	"posLeft"	2	2	53	"expBlockCat"	"White_forehead"	"White"	"forehead"	2	1	434	5	5	"White8.jpg"	2	1
10	5	2	2	5	"blackLeft"	"posLeft"	2	2	54	"expBlockCat"	"Black_forehead"	"Black"	"forehead"	2	1	552	5	5	"Black13.jpg"	2	1
10	5	2	2	5	"blackLeft"	"posLeft"	2	2	55	"expBlockCat"	"White_forehead"	"White"	"forehead"	2	1	623	5	5	"White38.jpg"	2	1
10	5	2	2	5	"blackLeft"	"posLeft"	2	2	56	"expBlockCat"	"Black_eyes"	"Black"	"eyes"	1	0	469	5	5	"Black11.jpg"	2	1
10	5	2	2	5	"blackLeft"	"posLeft"	2	2	57	"expBlockCat"	"White_forehead"	"White"	"forehead"	2	1	443	5	5	"White1.jpg"	2	1
10	5	2	2	5	"blackLeft"	"posLeft"	2	2	58	"expBlockCat"	"White_forehead"	"White"	"forehead"	2	1	473	5	5	"White34.jpg"	2	1
10	5	2	2	5	"blackLeft"	"posLeft"	2	2	59	"expBlockCat"	"Black_forehead"	"Black"	"forehead"	2	1	455	5	5	"Black20.jpg"	2	1
10	5	2	2	5	"blackLeft"	"posLeft"	2	2	60	"expBlockCat"	"Black_forehead"	"Black"	"forehead"	2	1	734	5	5	"Black22.jpg"	2	1
10	5	2	2	5	"blackLeft"	"posLeft"	2	2	61	"expBlockCat"	"Black_forehead"	"Black"	"forehead"	2	1	516	5	5	"Black36.jpg"	2	1
10	5	2	2	5	"blackLeft"	"posLeft"	2	2	62	"expBlockCat"	"Black_eyes"	"Black"	"eyes"	1	0	458	5	5	"Black26.jpg"	2	1
10	5	2	2	5	"blackLeft"	"posLeft"	2	2	63	"expBlockCat"	"Black_eyes"	"Black"	"eyes"	1	0	424	5	5	"Black1.jpg"	2	1
10	5	2	2	5	"blackLeft"	"posLeft"	2	2	64	"expBlockCat"	"Black_forehead"	"Black"	"forehead"	2	1	382	5	5	"Black8.jpg"	2	1
10	5	2	2	5	"blackLeft"	"posLeft"	2	2	65	"expBlockCat"	"White_eyes"	"White"	"eyes"	2	1	485	5	5	"White26.jpg"	2	1
10	5	2	2	5	"blackLeft"	"posLeft"	2	2	66	"expBlockCat"	"Black_forehead"	"Black"	"forehead"	2	1	555	5	5	"Black15.jpg"	2	1
10	5	2	2	5	"blackLeft"	"posLeft"	2	2	67	"expBlockCat"	"White_forehead"	"White"	"forehead"	2	1	553	5	5	"White31.jpg"	2	1
10	5	2	2	5	"blackLeft"	"posLeft"	2	2	68	"expBlockCat"	"White_eyes"	"White"	"eyes"	2	1	447	5	5	"White16.jpg"	2	1
10	5	2	2	5	"blackLeft"	"posLeft"	2	2	69	"expBlockCat"	"White_forehead"	"White"	"forehead"	2	1	462	5	5	"White24.jpg"	2	1
10	5	2	2	5	"blackLeft"	"posLeft"	2	2	70	"expBlockCat"	"Black_forehead"	"Black"	"forehead"	2	1	492	5	5	"Black2.jpg"	2	1
10	5	2	2	5	"blackLeft"	"posLeft"	2	2	71	"expBlockCat"	"Black_forehead"	"Black"	"forehead"	2	1	466	5	5	"Black25.jpg"	2	1
10	5	2	2	5	"blackLeft"	"posLeft"	2	2	72	"expBlockCat"	"Black_eyes"	"Black"	"eyes"	1	0	400	5	5	"Black31.jpg"	2	1
10	5	2	2	5	"blackLeft"	"posLeft"	2	2	73	"expBlockCat"	"Black_eyes"	"Black"	"eyes"	1	0	438	5	5	"Black8.jpg"	2	1
10	5	2	2	5	"blackLeft"	"posLeft"	2	2	74	"expBlockCat"	"White_eyes"	"White"	"eyes"	2	1	469	5	5	"White22.jpg"	2	1
10	5	2	2	5	"blackLeft"	"posLeft"	2	2	75	"expBlockCat"	"White_forehead"	"White"	"forehead"	2	1	395	5	5	"White9.jpg"	2	1
10	5	2	2	5	"blackLeft"	"posLeft"	2	2	76	"expBlockCat"	"White_eyes"	"White"	"eyes"	2	1	433	5	5	"White35.jpg"	2	1
10	5	2	2	5	"blackLeft"	"posLeft"	2	2	77	"expBlockCat"	"White_eyes"	"White"	"eyes"	2	1	335	5	5	"White30.jpg"	2	1
10	5	2	2	5	"blackLeft"	"posLeft"	2	2	78	"expBlockCat"	"White_eyes"	"White"	"eyes"	2	1	502	5	5	"White14.jpg"	2	1
10	5	2	2	5	"blackLeft"	"posLeft"	2	2	79	"expBlockCat"	"Black_forehead"	"Black"	"forehead"	2	1	340	5	5	"Black21.jpg"	2	1
10	5	2	2	5	"blackLeft"	"posLeft"	2	2	80	"expBlockCat"	"White_eyes"	"White"	"eyes"	2	1	378	5	5	"White17.jpg"	2	1
10	5	2	2	5	"blackLeft"	"posLeft"	2	2	81	"expBlockCat"	"Black_eyes"	"Black"	"eyes"	1	0	391	5	5	"Black51.jpg"	2	1
10	5	2	2	5	"blackLeft"	"posLeft"	2	2	82	"expBlockCat"	"White_eyes"	"White"	"eyes"	2	1	454	5	5	"White2.jpg"	2	1
10	5	2	2	5	"blackLeft"	"posLeft"	2	2	83	"expBlockCat"	"White_forehead"	"White"	"forehead"	2	1	507	5	5	"White3.jpg"	2	1
10	5	2	2	5	"blackLeft"	"posLeft"	2	2	84	"expBlockCat"	"White_eyes"	"White"	"eyes"	2	1	466	5	5	"White1.jpg"	2	1
10	5	2	2	5	"blackLeft"	"posLeft"	2	2	85	"expBlockCat"	"Black_forehead"	"Black"	"forehead"	2	1	512	5	5	"Black12.jpg"	2	1
10	5	2	2	5	"blackLeft"	"posLeft"	2	2	86	"expBlockCat"	"White_eyes"	"White"	"eyes"	2	1	446	5	5	"White9.jpg"	2	1
10	5	2	2	5	"blackLeft"	"posLeft"	2	2	87	"expBlockCat"	"Black_eyes"	"Black"	"eyes"	1	0	516	5	5	"Black22.jpg"	2	1
10	5	2	2	5	"blackLeft"	"posLeft"	2	2	88	"expBlockCat"	"Black_forehead"	"Black"	"forehead"	2	1	483	5	5	"Black11.jpg"	2	1
10	5	2	2	5	"blackLeft"	"posLeft"	2	2	89	"expBlockCat"	"Black_forehead"	"Black"	"forehead"	2	1	473	5	5	"Black10.jpg"	2	1
10	5	2	2	5	"blackLeft"	"posLeft"	2	2	90	"expBlockCat"	"White_forehead"	"White"	"forehead"	2	1	647	5	5	"White14.jpg"	2	1
10	5	2	2	5	"blackLeft"	"posLeft"	2	2	91	"expBlockCat"	"Black_eyes"	"Black"	"eyes"	1	0	509	5	5	"Black50.jpg"	2	1
10	5	2	2	5	"blackLeft"	"posLeft"	2	2	92	"expBlockCat"	"White_forehead"	"White"	"forehead"	2	1	523	5	5	"White29.jpg"	2	1
10	5	2	2	5	"blackLeft"	"posLeft"	2	2	93	"expBlockCat"	"White_forehead"	"White"	"forehead"	2	1	330	5	5	"White10.jpg"	2	1
10	5	2	2	5	"blackLeft"	"posLeft"	2	2	94	"expBlockCat"	"White_forehead"	"White"	"forehead"	2	1	376	5	5	"White32.jpg"	2	1
10	5	2	2	5	"blackLeft"	"posLeft"	2	2	95	"expBlockCat"	"White_forehead"	"White"	"forehead"	2	1	342	5	5	"White20.jpg"	2	1
10	5	2	2	5	"blackLeft"	"posLeft"	2	2	96	"expBlockCat"	"White_eyes"	"White"	"eyes"	2	1	412	5	5	"White11.jpg"	2	1
10	5	2	2	5	"blackLeft"	"posLeft"	2	2	97	"expBlockCat"	"White_forehead"	"White"	"forehead"	2	1	394	5	5	"White2.jpg"	2	1
10	5	2	2	5	"blackLeft"	"posLeft"	2	2	98	"expBlockCat"	"White_forehead"	"White"	"forehead"	2	1	375	5	5	"White30.jpg"	2	1
10	5	2	2	5	"blackLeft"	"posLeft"	2	2	99	"expBlockCat"	"Black_forehead"	"Black"	"forehead"	2	1	541	5	5	"Black39.jpg"	2	1
10	5	2	2	5	"blackLeft"	"posLeft"	2	2	100	"expBlockCat"	"Black_eyes"	"Black"	"eyes"	1	0	531	5	5	"Black10.jpg"	2	1
10	5	2	2	5	"blackLeft"	"posLeft"	2	2	101	"expBlockCat"	"Black_forehead"	"Black"	"forehead"	2	1	433	5	5	"Black51.jpg"	2	1
10	5	2	2	5	"blackLeft"	"posLeft"	2	2	102	"expBlockCat"	"White_forehead"	"White"	"forehead"	2	1	440	5	5	"White41.jpg"	2	1
10	5	2	2	5	"blackLeft"	"posLeft"	2	2	103	"expBlockCat"	"Black_eyes"	"Black"	"eyes"	1	0	438	5	5	"Black13.jpg"	2	1
10	5	2	2	5	"blackLeft"	"posLeft"	2	2	104	"expBlockCat"	"White_eyes"	"White"	"eyes"	2	1	428	5	5	"White3.jpg"	2	1
10	5	2	2	5	"blackLeft"	"posLeft"	2	2	105	"expBlockCat"	"White_eyes"	"White"	"eyes"	2	1	450	5	5	"White41.jpg"	2	1
10	5	2	2	5	"blackLeft"	"posLeft"	2	2	106	"expBlockCat"	"Black_eyes"	"Black"	"eyes"	1	0	440	5	5	"Black25.jpg"	2	1
10	5	2	2	5	"blackLeft"	"posLeft"	2	2	107	"expBlockCat"	"Black_forehead"	"Black"	"forehead"	2	1	439	5	5	"Black5.jpg"	2	1
10	5	2	2	5	"blackLeft"	"posLeft"	2	2	108	"expBlockCat"	"Black_eyes"	"Black"	"eyes"	1	0	429	5	5	"Black5.jpg"	2	1
10	5	2	2	5	"blackLeft"	"posLeft"	2	2	109	"expBlockCat"	"White_forehead"	"White"	"forehead"	2	1	427	5	5	"White12.jpg"	2	1
10	5	2	2	5	"blackLeft"	"posLeft"	2	2	110	"expBlockCat"	"Black_eyes"	"Black"	"eyes"	1	0	425	5	5	"Black20.jpg"	2	1
10	5	2	2	5	"blackLeft"	"posLeft"	2	2	111	"expBlockCat"	"Black_forehead"	"Black"	"forehead"	2	1	535	5	5	"Black31.jpg"	2	1
10	5	2	2	5	"blackLeft"	"posLeft"	2	2	112	"expBlockCat"	"White_eyes"	"White"	"eyes"	2	1	526	5	5	"White18.jpg"	2	1
10	5	2	2	5	"blackLeft"	"posLeft"	2	2	113	"expBlockCat"	"Black_eyes"	"Black"	"eyes"	1	0	484	5	5	"Black3.jpg"	2	1
10	5	2	2	5	"blackLeft"	"posLeft"	2	2	114	"expBlockCat"	"White_forehead"	"White"	"forehead"	2	1	466	5	5	"White22.jpg"	2	1
10	5	2	2	5	"blackLeft"	"posLeft"	2	2	115	"expBlockCat"	"Black_forehead"	"Black"	"forehead"	2	1	567	5	5	"Black9.jpg"	2	1
10	5	2	2	5	"blackLeft"	"posLeft"	2	2	116	"expBlockCat"	"White_eyes"	"White"	"eyes"	2	1	454	5	5	"White24.jpg"	2	1
10	5	2	2	5	"blackLeft"	"posLeft"	2	2	117	"expBlockCat"	"Black_eyes"	"Black"	"eyes"	1	0	332	5	5	"Black15.jpg"	2	1
10	5	2	2	5	"blackLeft"	"posLeft"	2	2	118	"expBlockCat"	"Black_forehead"	"Black"	"forehead"	2	1	410	5	5	"Black3.jpg"	2	1
10	5	2	2	5	"blackLeft"	"posLeft"	2	2	119	"expBlockCat"	"White_eyes"	"White"	"eyes"	2	1	400	5	5	"White23.jpg"	2	1
10	5	2	2	5	"blackLeft"	"posLeft"	2	2	120	"expBlockCat"	"White_eyes"	"White"	"eyes"	2	1	510	5	5	"White20.jpg"	2	1
10	5	2	2	5	"blackLeft"	"posLeft"	2	2	121	"expBlockCat"	"White_eyes"	"White"	"eyes"	2	1	477	5	5	"White33.jpg"	2	1
10	5	2	2	5	"blackLeft"	"posLeft"	2	2	122	"expBlockCat"	"White_forehead"	"White"	"forehead"	3	0	0	5	5	"White57.jpg"	3	0
10	5	2	2	5	"blackLeft"	"posLeft"	2	2	123	"expBlockCat"	"Black_eyes"	"Black"	"eyes"	1	0	489	5	5	"Black17.jpg"	2	1
10	5	2	2	5	"blackLeft"	"posLeft"	2	2	124	"expBlockCat"	"White_forehead"	"White"	"forehead"	2	1	487	5	5	"White54.jpg"	2	1
10	5	2	2	5	"blackLeft"	"posLeft"	2	2	125	"expBlockCat"	"Black_forehead"	"Black"	"forehead"	1	0	413	5	5	"Black24.jpg"	1	0
10	5	2	2	5	"blackLeft"	"posLeft"	2	2	126	"expBlockCat"	"Black_forehead"	"Black"	"forehead"	2	1	508	5	5	"Black33.jpg"	2	1
10	5	2	2	5	"blackLeft"	"posLeft"	2	2	127	"expBlockCat"	"Black_eyes"	"Black"	"eyes"	1	0	474	5	5	"Black36.jpg"	2	1
10	5	2	2	5	"blackLeft"	"posLeft"	2	2	128	"expBlockCat"	"Black_eyes"	"Black"	"eyes"	1	0	416	5	5	"Black16.jpg"	2	1
10	5	2	2	5	"blackLeft"	"posLeft"	2	3	129	"expBlockCat"	"White_forehead"	"White"	"forehead"	2	1	508	5	5	"White34.jpg"	2	1
10	5	2	2	5	"blackLeft"	"posLeft"	2	3	130	"expBlockCat"	"White_eyes"	"White"	"eyes"	2	1	410	5	5	"White6.jpg"	2	1
10	5	2	2	5	"blackLeft"	"posLeft"	2	3	131	"expBlockCat"	"Black_forehead"	"Black"	"forehead"	2	1	375	5	5	"Black11.jpg"	2	1
10	5	2	2	5	"blackLeft"	"posLeft"	2	3	132	"expBlockCat"	"White_eyes"	"White"	"eyes"	2	1	429	5	5	"White5.jpg"	2	1
10	5	2	2	5	"blackLeft"	"posLeft"	2	3	133	"expBlockCat"	"Black_forehead"	"Black"	"forehead"	2	1	428	5	5	"Black16.jpg"	2	1
10	5	2	2	5	"blackLeft"	"posLeft"	2	3	134	"expBlockCat"	"Black_eyes"	"Black"	"eyes"	1	0	449	5	5	"Black39.jpg"	2	1
10	5	2	2	5	"blackLeft"	"posLeft"	2	3	135	"expBlockCat"	"Black_forehead"	"Black"	"forehead"	2	1	511	5	5	"Black29.jpg"	2	1
10	5	2	2	5	"blackLeft"	"posLeft"	2	3	136	"expBlockCat"	"White_forehead"	"White"	"forehead"	1	0	381	5	5	"White56.jpg"	1	0
10	5	2	2	5	"blackLeft"	"posLeft"	2	3	137	"expBlockCat"	"Black_forehead"	"Black"	"forehead"	2	1	412	5	5	"Black1.jpg"	2	1
10	5	2	2	5	"blackLeft"	"posLeft"	2	3	138	"expBlockCat"	"Black_eyes"	"Black"	"eyes"	1	0	474	5	5	"Black25.jpg"	2	1
10	5	2	2	5	"blackLeft"	"posLeft"	2	3	139	"expBlockCat"	"Black_eyes"	"Black"	"eyes"	1	0	440	5	5	"Black26.jpg"	2	1
10	5	2	2	5	"blackLeft"	"posLeft"	2	3	140	"expBlockCat"	"Black_eyes"	"Black"	"eyes"	1	0	462	5	5	"Black24.jpg"	2	1
10	5	2	2	5	"blackLeft"	"posLeft"	2	3	141	"expBlockCat"	"White_forehead"	"White"	"forehead"	2	1	549	5	5	"White41.jpg"	2	1
10	5	2	2	5	"blackLeft"	"posLeft"	2	3	142	"expBlockCat"	"White_eyes"	"White"	"eyes"	2	1	459	5	5	"White20.jpg"	2	1
10	5	2	2	5	"blackLeft"	"posLeft"	2	3	143	"expBlockCat"	"Black_forehead"	"Black"	"forehead"	3	0	0	5	5	"Black17.jpg"	3	0
10	5	2	2	5	"blackLeft"	"posLeft"	2	3	144	"expBlockCat"	"White_forehead"	"White"	"forehead"	2	1	567	5	5	"White6.jpg"	2	1
10	5	2	2	5	"blackLeft"	"posLeft"	2	3	145	"expBlockCat"	"Black_forehead"	"Black"	"forehead"	2	1	493	5	5	"Black51.jpg"	2	1
10	5	2	2	5	"blackLeft"	"posLeft"	2	3	146	"expBlockCat"	"White_eyes"	"White"	"eyes"	2	1	428	5	5	"White56.jpg"	2	1
10	5	2	2	5	"blackLeft"	"posLeft"	2	3	147	"expBlockCat"	"Black_eyes"	"Black"	"eyes"	1	0	514	5	5	"Black20.jpg"	2	1
10	5	2	2	5	"blackLeft"	"posLeft"	2	3	148	"expBlockCat"	"Black_eyes"	"Black"	"eyes"	1	0	408	5	5	"Black13.jpg"	2	1
10	5	2	2	5	"blackLeft"	"posLeft"	2	3	149	"expBlockCat"	"White_forehead"	"White"	"forehead"	2	1	494	5	5	"White8.jpg"	2	1
10	5	2	2	5	"blackLeft"	"posLeft"	2	3	150	"expBlockCat"	"White_forehead"	"White"	"forehead"	1	0	540	5	5	"White30.jpg"	1	0
10	5	2	2	5	"blackLeft"	"posLeft"	2	3	151	"expBlockCat"	"Black_forehead"	"Black"	"forehead"	2	1	618	5	5	"Black7.jpg"	2	1
10	5	2	2	5	"blackLeft"	"posLeft"	2	3	152	"expBlockCat"	"White_forehead"	"White"	"forehead"	2	1	464	5	5	"White14.jpg"	2	1
10	5	2	2	5	"blackLeft"	"posLeft"	2	3	153	"expBlockCat"	"White_forehead"	"White"	"forehead"	2	1	390	5	5	"White26.jpg"	2	1
10	5	2	2	5	"blackLeft"	"posLeft"	2	3	154	"expBlockCat"	"White_eyes"	"White"	"eyes"	2	1	428	5	5	"White31.jpg"	2	1
10	5	2	2	5	"blackLeft"	"posLeft"	2	3	155	"expBlockCat"	"Black_forehead"	"Black"	"forehead"	2	1	746	5	5	"Black27.jpg"	2	1
10	5	2	2	5	"blackLeft"	"posLeft"	2	3	156	"expBlockCat"	"Black_eyes"	"Black"	"eyes"	1	0	712	5	5	"Black22.jpg"	2	1
10	5	2	2	5	"blackLeft"	"posLeft"	2	3	157	"expBlockCat"	"White_forehead"	"White"	"forehead"	2	1	479	5	5	"White1.jpg"	2	1
10	5	2	2	5	"blackLeft"	"posLeft"	2	3	158	"expBlockCat"	"Black_eyes"	"Black"	"eyes"	1	0	405	5	5	"Black3.jpg"	2	1
10	5	2	2	5	"blackLeft"	"posLeft"	2	3	159	"expBlockCat"	"Black_eyes"	"Black"	"eyes"	1	0	715	5	5	"Black17.jpg"	2	1
10	5	2	2	5	"blackLeft"	"posLeft"	2	3	160	"expBlockCat"	"White_eyes"	"White"	"eyes"	2	1	513	5	5	"White21.jpg"	2	1
10	5	2	2	5	"blackLeft"	"posLeft"	2	3	161	"expBlockCat"	"White_eyes"	"White"	"eyes"	2	1	519	5	5	"White12.jpg"	2	1
10	5	2	2	5	"blackLeft"	"posLeft"	2	3	162	"expBlockCat"	"White_forehead"	"White"	"forehead"	2	1	596	5	5	"White2.jpg"	2	1
10	5	2	2	5	"blackLeft"	"posLeft"	2	3	163	"expBlockCat"	"Black_forehead"	"Black"	"forehead"	2	1	659	5	5	"Black40.jpg"	2	1
10	5	2	2	5	"blackLeft"	"posLeft"	2	3	164	"expBlockCat"	"Black_eyes"	"Black"	"eyes"	1	0	457	5	5	"Black7.jpg"	2	1
10	5	2	2	5	"blackLeft"	"posLeft"	2	3	165	"expBlockCat"	"Black_eyes"	"Black"	"eyes"	1	0	591	5	5	"Black21.jpg"	2	1
10	5	2	2	5	"blackLeft"	"posLeft"	2	3	166	"expBlockCat"	"White_eyes"	"White"	"eyes"	2	1	549	5	5	"White14.jpg"	2	1
10	5	2	2	5	"blackLeft"	"posLeft"	2	3	167	"expBlockCat"	"White_forehead"	"White"	"forehead"	2	1	483	5	5	"White22.jpg"	2	1
10	5	2	2	5	"blackLeft"	"posLeft"	2	3	168	"expBlockCat"	"White_eyes"	"White"	"eyes"	2	1	513	5	5	"White8.jpg"	2	1
10	5	2	2	5	"blackLeft"	"posLeft"	2	3	169	"expBlockCat"	"White_eyes"	"White"	"eyes"	2	1	423	5	5	"White57.jpg"	2	1
10	5	2	2	5	"blackLeft"	"posLeft"	2	3	170	"expBlockCat"	"Black_eyes"	"Black"	"eyes"	1	0	493	5	5	"Black12.jpg"	2	1
10	5	2	2	5	"blackLeft"	"posLeft"	2	3	171	"expBlockCat"	"White_forehead"	"White"	"forehead"	2	1	467	5	5	"White11.jpg"	2	1
10	5	2	2	5	"blackLeft"	"posLeft"	2	3	172	"expBlockCat"	"White_forehead"	"White"	"forehead"	2	1	536	5	5	"White57.jpg"	2	1
10	5	2	2	5	"blackLeft"	"posLeft"	2	3	173	"expBlockCat"	"Black_forehead"	"Black"	"forehead"	2	1	638	5	5	"Black22.jpg"	2	1
10	5	2	2	5	"blackLeft"	"posLeft"	2	3	174	"expBlockCat"	"White_forehead"	"White"	"forehead"	2	1	484	5	5	"White29.jpg"	2	1
10	5	2	2	5	"blackLeft"	"posLeft"	2	3	175	"expBlockCat"	"Black_eyes"	"Black"	"eyes"	1	0	402	5	5	"Black36.jpg"	2	1
10	5	2	2	5	"blackLeft"	"posLeft"	2	3	176	"expBlockCat"	"Black_forehead"	"Black"	"forehead"	2	1	392	5	5	"Black12.jpg"	2	1
10	5	2	2	5	"blackLeft"	"posLeft"	2	3	177	"expBlockCat"	"Black_forehead"	"Black"	"forehead"	2	1	471	5	5	"Black10.jpg"	2	1
10	5	2	2	5	"blackLeft"	"posLeft"	2	3	178	"expBlockCat"	"White_eyes"	"White"	"eyes"	2	1	749	5	5	"White34.jpg"	2	1
10	5	2	2	5	"blackLeft"	"posLeft"	2	3	179	"expBlockCat"	"Black_eyes"	"Black"	"eyes"	1	0	563	5	5	"Black11.jpg"	2	1
10	5	2	2	5	"blackLeft"	"posLeft"	2	3	180	"expBlockCat"	"White_eyes"	"White"	"eyes"	2	1	457	5	5	"White22.jpg"	2	1
10	5	2	2	5	"blackLeft"	"posLeft"	2	3	181	"expBlockCat"	"White_forehead"	"White"	"forehead"	2	1	455	5	5	"White16.jpg"	2	1
10	5	2	2	5	"blackLeft"	"posLeft"	2	3	182	"expBlockCat"	"White_eyes"	"White"	"eyes"	2	1	486	5	5	"White33.jpg"	2	1
10	5	2	2	5	"blackLeft"	"posLeft"	2	3	183	"expBlockCat"	"White_eyes"	"White"	"eyes"	2	1	356	5	5	"White1.jpg"	2	1
10	5	2	2	5	"blackLeft"	"posLeft"	2	3	184	"expBlockCat"	"White_eyes"	"White"	"eyes"	2	1	418	5	5	"White10.jpg"	2	1
10	5	2	2	5	"blackLeft"	"posLeft"	2	3	185	"expBlockCat"	"White_forehead"	"White"	"forehead"	2	1	496	5	5	"White17.jpg"	2	1
10	5	2	2	5	"blackLeft"	"posLeft"	2	3	186	"expBlockCat"	"Black_eyes"	"Black"	"eyes"	1	0	718	5	5	"Black5.jpg"	2	1
10	5	2	2	5	"blackLeft"	"posLeft"	2	3	187	"expBlockCat"	"Black_eyes"	"Black"	"eyes"	1	0	637	5	5	"Black1.jpg"	2	1
10	5	2	2	5	"blackLeft"	"posLeft"	2	3	188	"expBlockCat"	"Black_forehead"	"Black"	"forehead"	2	1	515	5	5	"Black24.jpg"	2	1
10	5	2	2	5	"blackLeft"	"posLeft"	2	3	189	"expBlockCat"	"Black_forehead"	"Black"	"forehead"	2	1	432	5	5	"Black13.jpg"	2	1
10	5	2	2	5	"blackLeft"	"posLeft"	2	3	190	"expBlockCat"	"White_forehead"	"White"	"forehead"	2	1	438	5	5	"White5.jpg"	2	1
10	5	2	2	5	"blackLeft"	"posLeft"	2	3	191	"expBlockCat"	"Black_forehead"	"Black"	"forehead"	2	1	452	5	5	"Black23.jpg"	2	1
10	5	2	2	5	"blackLeft"	"posLeft"	2	3	192	"expBlockCat"	"White_forehead"	"White"	"forehead"	2	1	418	5	5	"White35.jpg"	2	1
10	5	2	2	5	"blackLeft"	"posLeft"	2	3	193	"expBlockCat"	"Black_forehead"	"Black"	"forehead"	2	1	472	5	5	"Black33.jpg"	2	1
10	5	2	2	5	"blackLeft"	"posLeft"	2	3	194	"expBlockCat"	"Black_eyes"	"Black"	"eyes"	1	0	495	5	5	"Black51.jpg"	2	1
10	5	2	2	5	"blackLeft"	"posLeft"	2	3	195	"expBlockCat"	"White_eyes"	"White"	"eyes"	2	1	436	5	5	"White54.jpg"	2	1
10	5	2	2	5	"blackLeft"	"posLeft"	2	3	196	"expBlockCat"	"White_eyes"	"White"	"eyes"	2	1	473	5	5	"White38.jpg"	2	1
10	5	2	2	5	"blackLeft"	"posLeft"	2	3	197	"expBlockCat"	"White_forehead"	"White"	"forehead"	2	1	544	5	5	"White3.jpg"	2	1
10	5	2	2	5	"blackLeft"	"posLeft"	2	3	198	"expBlockCat"	"White_forehead"	"White"	"forehead"	2	1	478	5	5	"White33.jpg"	2	1
10	5	2	2	5	"blackLeft"	"posLeft"	2	3	199	"expBlockCat"	"White_forehead"	"White"	"forehead"	2	1	436	5	5	"White18.jpg"	2	1
10	5	2	2	5	"blackLeft"	"posLeft"	2	3	200	"expBlockCat"	"White_forehead"	"White"	"forehead"	2	1	370	5	5	"White38.jpg"	2	1
10	5	2	2	5	"blackLeft"	"posLeft"	2	3	201	"expBlockCat"	"White_eyes"	"White"	"eyes"	2	1	336	5	5	"White3.jpg"	2	1
10	5	2	2	5	"blackLeft"	"posLeft"	2	3	202	"expBlockCat"	"Black_eyes"	"Black"	"eyes"	2	1	375	5	5	"Black16.jpg"	1	0
10	5	2	2	5	"blackLeft"	"posLeft"	2	3	203	"expBlockCat"	"Black_eyes"	"Black"	"eyes"	1	0	373	5	5	"Black9.jpg"	2	1
10	5	2	2	5	"blackLeft"	"posLeft"	2	3	204	"expBlockCat"	"White_eyes"	"White"	"eyes"	2	1	499	5	5	"White32.jpg"	2	1
10	5	2	2	5	"blackLeft"	"posLeft"	2	3	205	"expBlockCat"	"Black_eyes"	"Black"	"eyes"	1	0	553	5	5	"Black23.jpg"	2	1
10	5	2	2	5	"blackLeft"	"posLeft"	2	3	206	"expBlockCat"	"White_eyes"	"White"	"eyes"	2	1	552	5	5	"White24.jpg"	2	1
10	5	2	2	5	"blackLeft"	"posLeft"	2	3	207	"expBlockCat"	"Black_forehead"	"Black"	"forehead"	2	1	526	5	5	"Black31.jpg"	2	1
10	5	2	2	5	"blackLeft"	"posLeft"	2	3	208	"expBlockCat"	"Black_forehead"	"Black"	"forehead"	2	1	716	5	5	"Black5.jpg"	2	1
10	5	2	2	5	"blackLeft"	"posLeft"	2	3	209	"expBlockCat"	"White_eyes"	"White"	"eyes"	2	1	514	5	5	"White26.jpg"	2	1
10	5	2	2	5	"blackLeft"	"posLeft"	2	3	210	"expBlockCat"	"Black_eyes"	"Black"	"eyes"	1	0	512	5	5	"Black50.jpg"	2	1
10	5	2	2	5	"blackLeft"	"posLeft"	2	3	211	"expBlockCat"	"Black_eyes"	"Black"	"eyes"	1	0	559	5	5	"Black8.jpg"	2	1
10	5	2	2	5	"blackLeft"	"posLeft"	2	3	212	"expBlockCat"	"Black_forehead"	"Black"	"forehead"	2	1	653	5	5	"Black50.jpg"	2	1
10	5	2	2	5	"blackLeft"	"posLeft"	2	3	213	"expBlockCat"	"White_eyes"	"White"	"eyes"	2	1	451	5	5	"White23.jpg"	2	1
10	5	2	2	5	"blackLeft"	"posLeft"	2	3	214	"expBlockCat"	"White_forehead"	"White"	"forehead"	2	1	529	5	5	"White54.jpg"	2	1
10	5	2	2	5	"blackLeft"	"posLeft"	2	3	215	"expBlockCat"	"Black_forehead"	"Black"	"forehead"	2	1	599	5	5	"Black20.jpg"	2	1
10	5	2	2	5	"blackLeft"	"posLeft"	2	3	216	"expBlockCat"	"Black_eyes"	"Black"	"eyes"	1	0	766	5	5	"Black10.jpg"	2	1
10	5	2	2	5	"blackLeft"	"posLeft"	2	3	217	"expBlockCat"	"Black_eyes"	"Black"	"eyes"	1	0	460	5	5	"Black32.jpg"	2	1
10	5	2	2	5	"blackLeft"	"posLeft"	2	3	218	"expBlockCat"	"Black_forehead"	"Black"	"forehead"	2	1	498	5	5	"Black39.jpg"	2	1
10	5	2	2	5	"blackLeft"	"posLeft"	2	3	219	"expBlockCat"	"Black_forehead"	"Black"	"forehead"	2	1	336	5	5	"Black26.jpg"	2	1
10	5	2	2	5	"blackLeft"	"posLeft"	2	3	220	"expBlockCat"	"White_forehead"	"White"	"forehead"	2	1	535	5	5	"White9.jpg"	2	1
10	5	2	2	5	"blackLeft"	"posLeft"	2	3	221	"expBlockCat"	"Black_forehead"	"Black"	"forehead"	2	1	437	5	5	"Black8.jpg"	2	1
10	5	2	2	5	"blackLeft"	"posLeft"	2	3	222	"expBlockCat"	"White_eyes"	"White"	"eyes"	2	1	450	5	5	"White11.jpg"	2	1
10	5	2	2	5	"blackLeft"	"posLeft"	2	3	223	"expBlockCat"	"Black_forehead"	"Black"	"forehead"	2	1	648	5	5	"Black21.jpg"	2	1
10	5	2	2	5	"blackLeft"	"posLeft"	2	3	224	"expBlockCat"	"Black_forehead"	"Black"	"forehead"	2	1	519	5	5	"Black36.jpg"	2	1
10	5	2	2	5	"blackLeft"	"posLeft"	2	3	225	"expBlockCat"	"Black_eyes"	"Black"	"eyes"	1	0	509	5	5	"Black33.jpg"	2	1
10	5	2	2	5	"blackLeft"	"posLeft"	2	3	226	"expBlockCat"	"White_forehead"	"White"	"forehead"	2	1	531	5	5	"White23.jpg"	2	1
10	5	2	2	5	"blackLeft"	"posLeft"	2	3	227	"expBlockCat"	"Black_forehead"	"Black"	"forehead"	2	1	353	5	5	"Black6.jpg"	2	1
10	5	2	2	5	"blackLeft"	"posLeft"	2	3	228	"expBlockCat"	"White_eyes"	"White"	"eyes"	2	1	479	5	5	"White16.jpg"	2	1
10	5	2	2	5	"blackLeft"	"posLeft"	2	3	229	"expBlockCat"	"White_forehead"	"White"	"forehead"	2	1	484	5	5	"White32.jpg"	2	1
10	5	2	2	5	"blackLeft"	"posLeft"	2	3	230	"expBlockCat"	"White_eyes"	"White"	"eyes"	2	1	459	5	5	"White18.jpg"	2	1
10	5	2	2	5	"blackLeft"	"posLeft"	2	3	231	"expBlockCat"	"White_eyes"	"White"	"eyes"	2	1	465	5	5	"White17.jpg"	2	1
10	5	2	2	5	"blackLeft"	"posLeft"	2	3	232	"expBlockCat"	"Black_eyes"	"Black"	"eyes"	1	0	614	5	5	"Black27.jpg"	2	1
10	5	2	2	5	"blackLeft"	"posLeft"	2	3	233	"expBlockCat"	"White_forehead"	"White"	"forehead"	2	1	524	5	5	"White12.jpg"	2	1
10	5	2	2	5	"blackLeft"	"posLeft"	2	3	234	"expBlockCat"	"Black_eyes"	"Black"	"eyes"	1	0	474	5	5	"Black15.jpg"	2	1
10	5	2	2	5	"blackLeft"	"posLeft"	2	3	235	"expBlockCat"	"White_eyes"	"White"	"eyes"	2	1	473	5	5	"White2.jpg"	2	1
10	5	2	2	5	"blackLeft"	"posLeft"	2	3	236	"expBlockCat"	"Black_forehead"	"Black"	"forehead"	2	1	687	5	5	"Black2.jpg"	2	1
10	5	2	2	5	"blackLeft"	"posLeft"	2	3	237	"expBlockCat"	"White_eyes"	"White"	"eyes"	2	1	613	5	5	"White30.jpg"	2	1
10	5	2	2	5	"blackLeft"	"posLeft"	2	3	238	"expBlockCat"	"White_forehead"	"White"	"forehead"	2	1	515	5	5	"White20.jpg"	2	1
10	5	2	2	5	"blackLeft"	"posLeft"	2	3	239	"expBlockCat"	"Black_forehead"	"Black"	"forehead"	2	1	530	5	5	"Black9.jpg"	2	1
10	5	2	2	5	"blackLeft"	"posLeft"	2	3	240	"expBlockCat"	"White_forehead"	"White"	"forehead"	2	1	384	5	5	"White10.jpg"	2	1
10	5	2	2	5	"blackLeft"	"posLeft"	2	3	241	"expBlockCat"	"White_forehead"	"White"	"forehead"	2	1	374	5	5	"White24.jpg"	2	1
10	5	2	2	5	"blackLeft"	"posLeft"	2	3	242	"expBlockCat"	"Black_eyes"	"Black"	"eyes"	1	0	548	5	5	"Black31.jpg"	2	1
10	5	2	2	5	"blackLeft"	"posLeft"	2	3	243	"expBlockCat"	"White_eyes"	"White"	"eyes"	2	1	514	5	5	"White29.jpg"	2	1
10	5	2	2	5	"blackLeft"	"posLeft"	2	3	244	"expBlockCat"	"Black_eyes"	"Black"	"eyes"	1	0	449	5	5	"Black29.jpg"	2	1
10	5	2	2	5	"blackLeft"	"posLeft"	2	3	245	"expBlockCat"	"Black_eyes"	"Black"	"eyes"	1	0	478	5	5	"Black40.jpg"	2	1
10	5	2	2	5	"blackLeft"	"posLeft"	2	3	246	"expBlockCat"	"White_eyes"	"White"	"eyes"	2	1	428	5	5	"White35.jpg"	2	1
10	5	2	2	5	"blackLeft"	"posLeft"	2	3	247	"expBlockCat"	"White_eyes"	"White"	"eyes"	2	1	491	5	5	"White9.jpg"	2	1
10	5	2	2	5	"blackLeft"	"posLeft"	2	3	248	"expBlockCat"	"Black_forehead"	"Black"	"forehead"	2	1	673	5	5	"Black32.jpg"	2	1
10	5	2	2	5	"blackLeft"	"posLeft"	2	3	249	"expBlockCat"	"White_eyes"	"White"	"eyes"	2	1	583	5	5	"White41.jpg"	2	1
10	5	2	2	5	"blackLeft"	"posLeft"	2	3	250	"expBlockCat"	"White_forehead"	"White"	"forehead"	2	1	541	5	5	"White31.jpg"	2	1
10	5	2	2	5	"blackLeft"	"posLeft"	2	3	251	"expBlockCat"	"Black_forehead"	"Black"	"forehead"	2	1	507	5	5	"Black3.jpg"	2	1
10	5	2	2	5	"blackLeft"	"posLeft"	2	3	252	"expBlockCat"	"Black_eyes"	"Black"	"eyes"	1	0	481	5	5	"Black2.jpg"	2	1
10	5	2	2	5	"blackLeft"	"posLeft"	2	3	253	"expBlockCat"	"Black_forehead"	"Black"	"forehead"	2	1	504	5	5	"Black15.jpg"	2	1
10	5	2	2	5	"blackLeft"	"posLeft"	2	3	254	"expBlockCat"	"White_forehead"	"White"	"forehead"	2	1	478	5	5	"White21.jpg"	2	1
10	5	2	2	5	"blackLeft"	"posLeft"	2	3	255	"expBlockCat"	"Black_forehead"	"Black"	"forehead"	2	1	436	5	5	"Black25.jpg"	2	1
10	5	2	2	5	"blackLeft"	"posLeft"	2	3	256	"expBlockCat"	"Black_eyes"	"Black"	"eyes"	1	0	530	5	5	"Black6.jpg"	2	1
11	6	2	2	5	"blackRight"	"posRight"	2	1	1	"practiceBlockCat"	"Black_eyes"	"Black"	"eyes"	1	0	783	6	5	"Black66.jpg"	2	1
11	6	2	2	5	"blackRight"	"posRight"	2	1	2	"practiceBlockCat"	"Black_forehead"	"Black"	"forehead"	2	1	508	6	5	"Black64.jpg"	2	1
11	6	2	2	5	"blackRight"	"posRight"	2	1	3	"practiceBlockCat"	"White_eyes"	"White"	"eyes"	2	1	554	6	5	"White64.jpg"	2	1
11	6	2	2	5	"blackRight"	"posRight"	2	1	4	"practiceBlockCat"	"Black_forehead"	"Black"	"forehead"	2	1	553	6	5	"Black69.jpg"	2	1
11	6	2	2	5	"blackRight"	"posRight"	2	1	5	"practiceBlockCat"	"White_forehead"	"White"	"forehead"	2	1	480	6	5	"White67.jpg"	2	1
11	6	2	2	5	"blackRight"	"posRight"	2	1	6	"practiceBlockCat"	"Black_eyes"	"Black"	"eyes"	1	0	383	6	5	"Black61.jpg"	2	1
11	6	2	2	5	"blackRight"	"posRight"	2	1	7	"practiceBlockCat"	"White_forehead"	"White"	"forehead"	2	1	605	6	5	"White69.jpg"	2	1
11	6	2	2	5	"blackRight"	"posRight"	2	1	8	"practiceBlockCat"	"White_eyes"	"White"	"eyes"	2	1	516	6	5	"White66.jpg"	2	1
11	6	2	2	5	"blackRight"	"posRight"	2	2	1	"expBlockCat"	"Black_eyes"	"Black"	"eyes"	1	0	454	6	5	"Black39.jpg"	2	1
11	6	2	2	5	"blackRight"	"posRight"	2	2	2	"expBlockCat"	"Black_forehead"	"Black"	"forehead"	2	1	548	6	5	"Black27.jpg"	2	1
11	6	2	2	5	"blackRight"	"posRight"	2	2	3	"expBlockCat"	"White_eyes"	"White"	"eyes"	2	1	737	6	5	"White17.jpg"	2	1
11	6	2	2	5	"blackRight"	"posRight"	2	2	4	"expBlockCat"	"Black_eyes"	"Black"	"eyes"	1	0	528	6	5	"Black24.jpg"	2	1
11	6	2	2	5	"blackRight"	"posRight"	2	2	5	"expBlockCat"	"Black_eyes"	"Black"	"eyes"	1	0	430	6	5	"Black50.jpg"	2	1
11	6	2	2	5	"blackRight"	"posRight"	2	2	6	"expBlockCat"	"White_forehead"	"White"	"forehead"	2	1	540	6	5	"White3.jpg"	2	1
11	6	2	2	5	"blackRight"	"posRight"	2	2	7	"expBlockCat"	"Black_eyes"	"Black"	"eyes"	1	0	562	6	5	"Black11.jpg"	2	1
11	6	2	2	5	"blackRight"	"posRight"	2	2	8	"expBlockCat"	"White_eyes"	"White"	"eyes"	2	1	433	6	5	"White8.jpg"	2	1
11	6	2	2	5	"blackRight"	"posRight"	2	2	9	"expBlockCat"	"Black_eyes"	"Black"	"eyes"	1	0	439	6	5	"Black3.jpg"	2	1
11	6	2	2	5	"blackRight"	"posRight"	2	2	10	"expBlockCat"	"Black_eyes"	"Black"	"eyes"	1	0	437	6	5	"Black29.jpg"	2	1
11	6	2	2	5	"blackRight"	"posRight"	2	2	11	"expBlockCat"	"Black_eyes"	"Black"	"eyes"	1	0	403	6	5	"Black2.jpg"	2	1
11	6	2	2	5	"blackRight"	"posRight"	2	2	12	"expBlockCat"	"Black_forehead"	"Black"	"forehead"	2	1	474	6	5	"Black2.jpg"	2	1
11	6	2	2	5	"blackRight"	"posRight"	2	2	13	"expBlockCat"	"Black_eyes"	"Black"	"eyes"	1	0	360	6	5	"Black7.jpg"	2	1
11	6	2	2	5	"blackRight"	"posRight"	2	2	14	"expBlockCat"	"White_eyes"	"White"	"eyes"	2	1	398	6	5	"White5.jpg"	2	1
11	6	2	2	5	"blackRight"	"posRight"	2	2	15	"expBlockCat"	"Black_eyes"	"Black"	"eyes"	1	0	500	6	5	"Black22.jpg"	2	1
11	6	2	2	5	"blackRight"	"posRight"	2	2	16	"expBlockCat"	"Black_eyes"	"Black"	"eyes"	1	0	483	6	5	"Black8.jpg"	2	1
11	6	2	2	5	"blackRight"	"posRight"	2	2	17	"expBlockCat"	"White_eyes"	"White"	"eyes"	2	1	584	6	5	"White12.jpg"	2	1
11	6	2	2	5	"blackRight"	"posRight"	2	2	18	"expBlockCat"	"White_forehead"	"White"	"forehead"	2	1	461	6	5	"White29.jpg"	2	1
11	6	2	2	5	"blackRight"	"posRight"	2	2	19	"expBlockCat"	"Black_eyes"	"Black"	"eyes"	1	0	388	6	5	"Black1.jpg"	2	1
11	6	2	2	5	"blackRight"	"posRight"	2	2	20	"expBlockCat"	"Black_eyes"	"Black"	"eyes"	1	0	410	6	5	"Black9.jpg"	2	1
11	6	2	2	5	"blackRight"	"posRight"	2	2	21	"expBlockCat"	"White_forehead"	"White"	"forehead"	2	1	432	6	5	"White2.jpg"	2	1
11	6	2	2	5	"blackRight"	"posRight"	2	2	22	"expBlockCat"	"Black_forehead"	"Black"	"forehead"	2	1	470	6	5	"Black1.jpg"	2	1
11	6	2	2	5	"blackRight"	"posRight"	2	2	23	"expBlockCat"	"White_forehead"	"White"	"forehead"	2	1	493	6	5	"White35.jpg"	2	1
11	6	2	2	5	"blackRight"	"posRight"	2	2	24	"expBlockCat"	"White_forehead"	"White"	"forehead"	2	1	538	6	5	"White10.jpg"	2	1
11	6	2	2	5	"blackRight"	"posRight"	2	2	25	"expBlockCat"	"Black_eyes"	"Black"	"eyes"	2	1	408	6	5	"Black17.jpg"	1	0
11	6	2	2	5	"blackRight"	"posRight"	2	2	26	"expBlockCat"	"Black_forehead"	"Black"	"forehead"	2	1	463	6	5	"Black7.jpg"	2	1
11	6	2	2	5	"blackRight"	"posRight"	2	2	27	"expBlockCat"	"Black_eyes"	"Black"	"eyes"	1	0	477	6	5	"Black26.jpg"	2	1
11	6	2	2	5	"blackRight"	"posRight"	2	2	28	"expBlockCat"	"White_forehead"	"White"	"forehead"	2	1	451	6	5	"White23.jpg"	2	1
11	6	2	2	5	"blackRight"	"posRight"	2	2	29	"expBlockCat"	"White_eyes"	"White"	"eyes"	2	1	465	6	5	"White2.jpg"	2	1
11	6	2	2	5	"blackRight"	"posRight"	2	2	30	"expBlockCat"	"Black_eyes"	"Black"	"eyes"	1	0	552	6	5	"Black32.jpg"	2	1
11	6	2	2	5	"blackRight"	"posRight"	2	2	31	"expBlockCat"	"Black_forehead"	"Black"	"forehead"	2	1	486	6	5	"Black32.jpg"	2	1
11	6	2	2	5	"blackRight"	"posRight"	2	2	32	"expBlockCat"	"Black_eyes"	"Black"	"eyes"	1	0	476	6	5	"Black31.jpg"	2	1
11	6	2	2	5	"blackRight"	"posRight"	2	2	33	"expBlockCat"	"White_eyes"	"White"	"eyes"	2	1	586	6	5	"White57.jpg"	2	1
11	6	2	2	5	"blackRight"	"posRight"	2	2	34	"expBlockCat"	"Black_forehead"	"Black"	"forehead"	2	1	744	6	5	"Black5.jpg"	2	1
11	6	2	2	5	"blackRight"	"posRight"	2	2	35	"expBlockCat"	"Black_eyes"	"Black"	"eyes"	1	0	535	6	5	"Black36.jpg"	2	1
11	6	2	2	5	"blackRight"	"posRight"	2	2	36	"expBlockCat"	"Black_eyes"	"Black"	"eyes"	1	0	493	6	5	"Black25.jpg"	2	1
11	6	2	2	5	"blackRight"	"posRight"	2	2	37	"expBlockCat"	"White_eyes"	"White"	"eyes"	2	1	459	6	5	"White34.jpg"	2	1
11	6	2	2	5	"blackRight"	"posRight"	2	2	38	"expBlockCat"	"White_eyes"	"White"	"eyes"	2	1	528	6	5	"White22.jpg"	2	1
11	6	2	2	5	"blackRight"	"posRight"	2	2	39	"expBlockCat"	"Black_eyes"	"Black"	"eyes"	1	0	415	6	5	"Black15.jpg"	2	1
11	6	2	2	5	"blackRight"	"posRight"	2	2	40	"expBlockCat"	"White_eyes"	"White"	"eyes"	2	1	517	6	5	"White26.jpg"	2	1
11	6	2	2	5	"blackRight"	"posRight"	2	2	41	"expBlockCat"	"White_eyes"	"White"	"eyes"	2	1	491	6	5	"White3.jpg"	2	1
11	6	2	2	5	"blackRight"	"posRight"	2	2	42	"expBlockCat"	"White_eyes"	"White"	"eyes"	2	1	481	6	5	"White21.jpg"	2	1
11	6	2	2	5	"blackRight"	"posRight"	2	2	43	"expBlockCat"	"Black_eyes"	"Black"	"eyes"	1	0	440	6	5	"Black20.jpg"	2	1
11	6	2	2	5	"blackRight"	"posRight"	2	2	44	"expBlockCat"	"White_forehead"	"White"	"forehead"	2	1	390	6	5	"White14.jpg"	2	1
11	6	2	2	5	"blackRight"	"posRight"	2	2	45	"expBlockCat"	"Black_forehead"	"Black"	"forehead"	2	1	516	6	5	"Black29.jpg"	2	1
11	6	2	2	5	"blackRight"	"posRight"	2	2	46	"expBlockCat"	"Black_forehead"	"Black"	"forehead"	2	1	522	6	5	"Black17.jpg"	2	1
11	6	2	2	5	"blackRight"	"posRight"	2	2	47	"expBlockCat"	"White_eyes"	"White"	"eyes"	2	1	681	6	5	"White16.jpg"	2	1
11	6	2	2	5	"blackRight"	"posRight"	2	2	48	"expBlockCat"	"White_forehead"	"White"	"forehead"	1	0	479	6	5	"White6.jpg"	1	0
11	6	2	2	5	"blackRight"	"posRight"	2	2	49	"expBlockCat"	"Black_eyes"	"Black"	"eyes"	1	0	565	6	5	"Black33.jpg"	2	1
11	6	2	2	5	"blackRight"	"posRight"	2	2	50	"expBlockCat"	"White_eyes"	"White"	"eyes"	2	1	491	6	5	"White14.jpg"	2	1
11	6	2	2	5	"blackRight"	"posRight"	2	2	51	"expBlockCat"	"White_forehead"	"White"	"forehead"	2	1	482	6	5	"White56.jpg"	2	1
11	6	2	2	5	"blackRight"	"posRight"	2	2	52	"expBlockCat"	"White_forehead"	"White"	"forehead"	2	1	520	6	5	"White34.jpg"	2	1
11	6	2	2	5	"blackRight"	"posRight"	2	2	53	"expBlockCat"	"Black_forehead"	"Black"	"forehead"	2	1	574	6	5	"Black16.jpg"	2	1
11	6	2	2	5	"blackRight"	"posRight"	2	2	54	"expBlockCat"	"Black_forehead"	"Black"	"forehead"	2	1	452	6	5	"Black26.jpg"	2	1
11	6	2	2	5	"blackRight"	"posRight"	2	2	55	"expBlockCat"	"White_eyes"	"White"	"eyes"	2	1	506	6	5	"White23.jpg"	2	1
11	6	2	2	5	"blackRight"	"posRight"	2	2	56	"expBlockCat"	"White_forehead"	"White"	"forehead"	2	1	752	6	5	"White30.jpg"	2	1
11	6	2	2	5	"blackRight"	"posRight"	2	2	57	"expBlockCat"	"White_forehead"	"White"	"forehead"	2	1	494	6	5	"White33.jpg"	2	1
11	6	2	2	5	"blackRight"	"posRight"	2	2	58	"expBlockCat"	"Black_forehead"	"Black"	"forehead"	2	1	532	6	5	"Black36.jpg"	2	1
11	6	2	2	5	"blackRight"	"posRight"	2	2	59	"expBlockCat"	"Black_eyes"	"Black"	"eyes"	3	0	0	6	5	"Black6.jpg"	3	0
11	6	2	2	5	"blackRight"	"posRight"	2	2	60	"expBlockCat"	"Black_forehead"	"Black"	"forehead"	2	1	473	6	5	"Black22.jpg"	2	1
11	6	2	2	5	"blackRight"	"posRight"	2	2	61	"expBlockCat"	"White_forehead"	"White"	"forehead"	2	1	463	6	5	"White41.jpg"	2	1
11	6	2	2	5	"blackRight"	"posRight"	2	2	62	"expBlockCat"	"Black_forehead"	"Black"	"forehead"	1	0	429	6	5	"Black13.jpg"	1	0
11	6	2	2	5	"blackRight"	"posRight"	2	2	63	"expBlockCat"	"White_eyes"	"White"	"eyes"	1	0	659	6	5	"White38.jpg"	1	0
11	6	2	2	5	"blackRight"	"posRight"	2	2	64	"expBlockCat"	"Black_forehead"	"Black"	"forehead"	2	1	530	6	5	"Black15.jpg"	2	1
11	6	2	2	5	"blackRight"	"posRight"	2	2	65	"expBlockCat"	"Black_forehead"	"Black"	"forehead"	2	1	584	6	5	"Black21.jpg"	2	1
11	6	2	2	5	"blackRight"	"posRight"	2	2	66	"expBlockCat"	"White_forehead"	"White"	"forehead"	2	1	437	6	5	"White16.jpg"	2	1
11	6	2	2	5	"blackRight"	"posRight"	2	2	67	"expBlockCat"	"Black_forehead"	"Black"	"forehead"	2	1	531	6	5	"Black31.jpg"	2	1
11	6	2	2	5	"blackRight"	"posRight"	2	2	68	"expBlockCat"	"White_eyes"	"White"	"eyes"	2	1	473	6	5	"White9.jpg"	2	1
11	6	2	2	5	"blackRight"	"posRight"	2	2	69	"expBlockCat"	"White_eyes"	"White"	"eyes"	2	1	439	6	5	"White11.jpg"	2	1
11	6	2	2	5	"blackRight"	"posRight"	2	2	70	"expBlockCat"	"White_eyes"	"White"	"eyes"	2	1	406	6	5	"White10.jpg"	2	1
11	6	2	2	5	"blackRight"	"posRight"	2	2	71	"expBlockCat"	"Black_eyes"	"Black"	"eyes"	1	0	476	6	5	"Black27.jpg"	2	1
11	6	2	2	5	"blackRight"	"posRight"	2	2	72	"expBlockCat"	"White_forehead"	"White"	"forehead"	2	1	634	6	5	"White18.jpg"	2	1
11	6	2	2	5	"blackRight"	"posRight"	2	2	73	"expBlockCat"	"White_eyes"	"White"	"eyes"	1	0	632	6	5	"White56.jpg"	1	0
11	6	2	2	5	"blackRight"	"posRight"	2	2	74	"expBlockCat"	"White_forehead"	"White"	"forehead"	2	1	525	6	5	"White20.jpg"	2	1
11	6	2	2	5	"blackRight"	"posRight"	2	2	75	"expBlockCat"	"Black_eyes"	"Black"	"eyes"	1	0	484	6	5	"Black13.jpg"	2	1
11	6	2	2	5	"blackRight"	"posRight"	2	2	76	"expBlockCat"	"Black_forehead"	"Black"	"forehead"	2	1	530	6	5	"Black33.jpg"	2	1
11	6	2	2	5	"blackRight"	"posRight"	2	2	77	"expBlockCat"	"White_eyes"	"White"	"eyes"	2	1	408	6	5	"White33.jpg"	2	1
11	6	2	2	5	"blackRight"	"posRight"	2	2	78	"expBlockCat"	"White_eyes"	"White"	"eyes"	2	1	622	6	5	"White35.jpg"	2	1
11	6	2	2	5	"blackRight"	"posRight"	2	2	79	"expBlockCat"	"Black_eyes"	"Black"	"eyes"	1	0	557	6	5	"Black21.jpg"	2	1
11	6	2	2	5	"blackRight"	"posRight"	2	2	80	"expBlockCat"	"White_forehead"	"White"	"forehead"	2	1	507	6	5	"White5.jpg"	2	1
11	6	2	2	5	"blackRight"	"posRight"	2	2	81	"expBlockCat"	"Black_forehead"	"Black"	"forehead"	2	1	593	6	5	"Black6.jpg"	2	1
11	6	2	2	5	"blackRight"	"posRight"	2	2	82	"expBlockCat"	"White_forehead"	"White"	"forehead"	2	1	487	6	5	"White31.jpg"	2	1
11	6	2	2	5	"blackRight"	"posRight"	2	2	83	"expBlockCat"	"Black_forehead"	"Black"	"forehead"	2	1	445	6	5	"Black51.jpg"	2	1
11	6	2	2	5	"blackRight"	"posRight"	2	2	84	"expBlockCat"	"Black_eyes"	"Black"	"eyes"	1	0	387	6	5	"Black51.jpg"	2	1
11	6	2	2	5	"blackRight"	"posRight"	2	2	85	"expBlockCat"	"White_eyes"	"White"	"eyes"	2	1	625	6	5	"White32.jpg"	2	1
11	6	2	2	5	"blackRight"	"posRight"	2	2	86	"expBlockCat"	"White_forehead"	"White"	"forehead"	2	1	440	6	5	"White1.jpg"	2	1
11	6	2	2	5	"blackRight"	"posRight"	2	2	87	"expBlockCat"	"Black_eyes"	"Black"	"eyes"	1	0	430	6	5	"Black12.jpg"	2	1
11	6	2	2	5	"blackRight"	"posRight"	2	2	88	"expBlockCat"	"White_eyes"	"White"	"eyes"	2	1	460	6	5	"White18.jpg"	2	1
11	6	2	2	5	"blackRight"	"posRight"	2	2	89	"expBlockCat"	"Black_forehead"	"Black"	"forehead"	2	1	514	6	5	"Black12.jpg"	2	1
11	6	2	2	5	"blackRight"	"posRight"	2	2	90	"expBlockCat"	"White_forehead"	"White"	"forehead"	2	1	496	6	5	"White9.jpg"	2	1
11	6	2	2	5	"blackRight"	"posRight"	2	2	91	"expBlockCat"	"White_forehead"	"White"	"forehead"	2	1	542	6	5	"White8.jpg"	2	1
11	6	2	2	5	"blackRight"	"posRight"	2	2	92	"expBlockCat"	"White_forehead"	"White"	"forehead"	2	1	475	6	5	"White21.jpg"	2	1
11	6	2	2	5	"blackRight"	"posRight"	2	2	93	"expBlockCat"	"Black_forehead"	"Black"	"forehead"	2	1	578	6	5	"Black11.jpg"	2	1
11	6	2	2	5	"blackRight"	"posRight"	2	2	94	"expBlockCat"	"White_eyes"	"White"	"eyes"	2	1	560	6	5	"White6.jpg"	2	1
11	6	2	2	5	"blackRight"	"posRight"	2	2	95	"expBlockCat"	"Black_forehead"	"Black"	"forehead"	2	1	406	6	5	"Black24.jpg"	2	1
11	6	2	2	5	"blackRight"	"posRight"	2	2	96	"expBlockCat"	"Black_forehead"	"Black"	"forehead"	2	1	516	6	5	"Black3.jpg"	2	1
11	6	2	2	5	"blackRight"	"posRight"	2	2	97	"expBlockCat"	"White_eyes"	"White"	"eyes"	2	1	411	6	5	"White41.jpg"	2	1
11	6	2	2	5	"blackRight"	"posRight"	2	2	98	"expBlockCat"	"White_eyes"	"White"	"eyes"	2	1	472	6	5	"White31.jpg"	2	1
11	6	2	2	5	"blackRight"	"posRight"	2	2	99	"expBlockCat"	"Black_forehead"	"Black"	"forehead"	2	1	382	6	5	"Black39.jpg"	2	1
11	6	2	2	5	"blackRight"	"posRight"	2	2	100	"expBlockCat"	"White_eyes"	"White"	"eyes"	2	1	349	6	5	"White30.jpg"	2	1
11	6	2	2	5	"blackRight"	"posRight"	2	2	101	"expBlockCat"	"Black_eyes"	"Black"	"eyes"	1	0	571	6	5	"Black16.jpg"	2	1
11	6	2	2	5	"blackRight"	"posRight"	2	2	102	"expBlockCat"	"Black_eyes"	"Black"	"eyes"	1	0	417	6	5	"Black23.jpg"	2	1
11	6	2	2	5	"blackRight"	"posRight"	2	2	103	"expBlockCat"	"Black_eyes"	"Black"	"eyes"	1	0	503	6	5	"Black10.jpg"	2	1
11	6	2	2	5	"blackRight"	"posRight"	2	2	104	"expBlockCat"	"Black_forehead"	"Black"	"forehead"	2	1	446	6	5	"Black9.jpg"	2	1
11	6	2	2	5	"blackRight"	"posRight"	2	2	105	"expBlockCat"	"White_forehead"	"White"	"forehead"	2	1	483	6	5	"White12.jpg"	2	1
11	6	2	2	5	"blackRight"	"posRight"	2	2	106	"expBlockCat"	"Black_forehead"	"Black"	"forehead"	2	1	593	6	5	"Black50.jpg"	2	1
11	6	2	2	5	"blackRight"	"posRight"	2	2	107	"expBlockCat"	"Black_forehead"	"Black"	"forehead"	2	1	464	6	5	"Black40.jpg"	2	1
11	6	2	2	5	"blackRight"	"posRight"	2	2	108	"expBlockCat"	"White_eyes"	"White"	"eyes"	2	1	462	6	5	"White1.jpg"	2	1
11	6	2	2	5	"blackRight"	"posRight"	2	2	109	"expBlockCat"	"White_forehead"	"White"	"forehead"	2	1	499	6	5	"White32.jpg"	2	1
11	6	2	2	5	"blackRight"	"posRight"	2	2	110	"expBlockCat"	"Black_forehead"	"Black"	"forehead"	2	1	482	6	5	"Black8.jpg"	2	1
11	6	2	2	5	"blackRight"	"posRight"	2	2	111	"expBlockCat"	"White_forehead"	"White"	"forehead"	2	1	471	6	5	"White17.jpg"	2	1
11	6	2	2	5	"blackRight"	"posRight"	2	2	112	"expBlockCat"	"Black_eyes"	"Black"	"eyes"	2	1	420	6	5	"Black5.jpg"	1	0
11	6	2	2	5	"blackRight"	"posRight"	2	2	113	"expBlockCat"	"White_forehead"	"White"	"forehead"	2	1	395	6	5	"White57.jpg"	2	1
11	6	2	2	5	"blackRight"	"posRight"	2	2	114	"expBlockCat"	"White_forehead"	"White"	"forehead"	2	1	417	6	5	"White22.jpg"	2	1
11	6	2	2	5	"blackRight"	"posRight"	2	2	115	"expBlockCat"	"White_forehead"	"White"	"forehead"	2	1	711	6	5	"White26.jpg"	2	1
11	6	2	2	5	"blackRight"	"posRight"	2	2	116	"expBlockCat"	"White_eyes"	"White"	"eyes"	2	1	429	6	5	"White20.jpg"	2	1
11	6	2	2	5	"blackRight"	"posRight"	2	2	117	"expBlockCat"	"White_forehead"	"White"	"forehead"	2	1	563	6	5	"White54.jpg"	2	1
11	6	2	2	5	"blackRight"	"posRight"	2	2	118	"expBlockCat"	"White_forehead"	"White"	"forehead"	2	1	481	6	5	"White38.jpg"	2	1
11	6	2	2	5	"blackRight"	"posRight"	2	2	119	"expBlockCat"	"White_eyes"	"White"	"eyes"	2	1	447	6	5	"White54.jpg"	2	1
11	6	2	2	5	"blackRight"	"posRight"	2	2	120	"expBlockCat"	"Black_forehead"	"Black"	"forehead"	2	1	638	6	5	"Black10.jpg"	2	1
11	6	2	2	5	"blackRight"	"posRight"	2	2	121	"expBlockCat"	"White_eyes"	"White"	"eyes"	2	1	468	6	5	"White29.jpg"	2	1
11	6	2	2	5	"blackRight"	"posRight"	2	2	122	"expBlockCat"	"Black_forehead"	"Black"	"forehead"	2	1	426	6	5	"Black23.jpg"	2	1
11	6	2	2	5	"blackRight"	"posRight"	2	2	123	"expBlockCat"	"Black_forehead"	"Black"	"forehead"	2	1	456	6	5	"Black20.jpg"	2	1
11	6	2	2	5	"blackRight"	"posRight"	2	2	124	"expBlockCat"	"White_eyes"	"White"	"eyes"	2	1	430	6	5	"White24.jpg"	2	1
11	6	2	2	5	"blackRight"	"posRight"	2	2	125	"expBlockCat"	"Black_eyes"	"Black"	"eyes"	1	0	732	6	5	"Black40.jpg"	2	1
11	6	2	2	5	"blackRight"	"posRight"	2	2	126	"expBlockCat"	"Black_forehead"	"Black"	"forehead"	2	1	562	6	5	"Black25.jpg"	2	1
11	6	2	2	5	"blackRight"	"posRight"	2	2	127	"expBlockCat"	"White_forehead"	"White"	"forehead"	2	1	457	6	5	"White24.jpg"	2	1
11	6	2	2	5	"blackRight"	"posRight"	2	2	128	"expBlockCat"	"White_forehead"	"White"	"forehead"	1	0	550	6	5	"White11.jpg"	1	0
11	6	2	2	5	"blackRight"	"posRight"	2	3	129	"expBlockCat"	"Black_eyes"	"Black"	"eyes"	1	0	553	6	5	"Black17.jpg"	2	1
11	6	2	2	5	"blackRight"	"posRight"	2	3	130	"expBlockCat"	"Black_forehead"	"Black"	"forehead"	2	1	431	6	5	"Black27.jpg"	2	1
11	6	2	2	5	"blackRight"	"posRight"	2	3	131	"expBlockCat"	"White_eyes"	"White"	"eyes"	2	1	324	6	5	"White11.jpg"	2	1
11	6	2	2	5	"blackRight"	"posRight"	2	3	132	"expBlockCat"	"Black_forehead"	"Black"	"forehead"	2	1	490	6	5	"Black3.jpg"	2	1
11	6	2	2	5	"blackRight"	"posRight"	2	3	133	"expBlockCat"	"Black_forehead"	"Black"	"forehead"	2	1	472	6	5	"Black7.jpg"	2	1
11	6	2	2	5	"blackRight"	"posRight"	2	3	134	"expBlockCat"	"White_eyes"	"White"	"eyes"	2	1	454	6	5	"White30.jpg"	2	1
11	6	2	2	5	"blackRight"	"posRight"	2	3	135	"expBlockCat"	"Black_eyes"	"Black"	"eyes"	1	0	365	6	5	"Black40.jpg"	2	1
11	6	2	2	5	"blackRight"	"posRight"	2	3	136	"expBlockCat"	"Black_eyes"	"Black"	"eyes"	2	1	451	6	5	"Black8.jpg"	1	0
11	6	2	2	5	"blackRight"	"posRight"	2	3	137	"expBlockCat"	"Black_forehead"	"Black"	"forehead"	2	1	505	6	5	"Black2.jpg"	2	1
11	6	2	2	5	"blackRight"	"posRight"	2	3	138	"expBlockCat"	"Black_forehead"	"Black"	"forehead"	2	1	359	6	5	"Black21.jpg"	2	1
11	6	2	2	5	"blackRight"	"posRight"	2	3	139	"expBlockCat"	"Black_eyes"	"Black"	"eyes"	1	0	342	6	5	"Black9.jpg"	2	1
11	6	2	2	5	"blackRight"	"posRight"	2	3	140	"expBlockCat"	"Black_forehead"	"Black"	"forehead"	2	1	380	6	5	"Black13.jpg"	2	1
11	6	2	2	5	"blackRight"	"posRight"	2	3	141	"expBlockCat"	"Black_forehead"	"Black"	"forehead"	2	1	354	6	5	"Black24.jpg"	2	1
11	6	2	2	5	"blackRight"	"posRight"	2	3	142	"expBlockCat"	"White_forehead"	"White"	"forehead"	2	1	432	6	5	"White10.jpg"	2	1
11	6	2	2	5	"blackRight"	"posRight"	2	3	143	"expBlockCat"	"Black_forehead"	"Black"	"forehead"	2	1	358	6	5	"Black22.jpg"	2	1
11	6	2	2	5	"blackRight"	"posRight"	2	3	144	"expBlockCat"	"White_forehead"	"White"	"forehead"	2	1	436	6	5	"White38.jpg"	2	1
11	6	2	2	5	"blackRight"	"posRight"	2	3	145	"expBlockCat"	"Black_eyes"	"Black"	"eyes"	1	0	370	6	5	"Black33.jpg"	2	1
11	6	2	2	5	"blackRight"	"posRight"	2	3	146	"expBlockCat"	"Black_eyes"	"Black"	"eyes"	1	0	440	6	5	"Black12.jpg"	2	1
11	6	2	2	5	"blackRight"	"posRight"	2	3	147	"expBlockCat"	"White_eyes"	"White"	"eyes"	2	1	511	6	5	"White38.jpg"	2	1
11	6	2	2	5	"blackRight"	"posRight"	2	3	148	"expBlockCat"	"Black_forehead"	"Black"	"forehead"	2	1	485	6	5	"Black26.jpg"	2	1
11	6	2	2	5	"blackRight"	"posRight"	2	3	149	"expBlockCat"	"Black_forehead"	"Black"	"forehead"	2	1	363	6	5	"Black9.jpg"	2	1
11	6	2	2	5	"blackRight"	"posRight"	2	3	150	"expBlockCat"	"Black_forehead"	"Black"	"forehead"	1	0	568	6	5	"Black8.jpg"	1	0
11	6	2	2	5	"blackRight"	"posRight"	2	3	151	"expBlockCat"	"White_forehead"	"White"	"forehead"	2	1	423	6	5	"White12.jpg"	2	1
11	6	2	2	5	"blackRight"	"posRight"	2	3	152	"expBlockCat"	"White_eyes"	"White"	"eyes"	2	1	532	6	5	"White31.jpg"	2	1
11	6	2	2	5	"blackRight"	"posRight"	2	3	153	"expBlockCat"	"Black_eyes"	"Black"	"eyes"	1	0	434	6	5	"Black21.jpg"	2	1
11	6	2	2	5	"blackRight"	"posRight"	2	3	154	"expBlockCat"	"Black_forehead"	"Black"	"forehead"	2	1	521	6	5	"Black50.jpg"	2	1
11	6	2	2	5	"blackRight"	"posRight"	2	3	155	"expBlockCat"	"White_eyes"	"White"	"eyes"	2	1	463	6	5	"White21.jpg"	2	1
11	6	2	2	5	"blackRight"	"posRight"	2	3	156	"expBlockCat"	"Black_eyes"	"Black"	"eyes"	1	0	461	6	5	"Black39.jpg"	2	1
11	6	2	2	5	"blackRight"	"posRight"	2	3	157	"expBlockCat"	"White_forehead"	"White"	"forehead"	2	1	507	6	5	"White30.jpg"	2	1
11	6	2	2	5	"blackRight"	"posRight"	2	3	158	"expBlockCat"	"White_eyes"	"White"	"eyes"	1	0	442	6	5	"White29.jpg"	1	0
11	6	2	2	5	"blackRight"	"posRight"	2	3	159	"expBlockCat"	"Black_eyes"	"Black"	"eyes"	1	0	464	6	5	"Black3.jpg"	2	1
11	6	2	2	5	"blackRight"	"posRight"	2	3	160	"expBlockCat"	"White_forehead"	"White"	"forehead"	2	1	558	6	5	"White21.jpg"	2	1
11	6	2	2	5	"blackRight"	"posRight"	2	3	161	"expBlockCat"	"Black_eyes"	"Black"	"eyes"	1	0	484	6	5	"Black10.jpg"	2	1
11	6	2	2	5	"blackRight"	"posRight"	2	3	162	"expBlockCat"	"White_forehead"	"White"	"forehead"	2	1	475	6	5	"White24.jpg"	2	1
11	6	2	2	5	"blackRight"	"posRight"	2	3	163	"expBlockCat"	"White_eyes"	"White"	"eyes"	2	1	489	6	5	"White56.jpg"	2	1
11	6	2	2	5	"blackRight"	"posRight"	2	3	164	"expBlockCat"	"White_forehead"	"White"	"forehead"	2	1	638	6	5	"White32.jpg"	2	1
11	6	2	2	5	"blackRight"	"posRight"	2	3	165	"expBlockCat"	"White_eyes"	"White"	"eyes"	2	1	389	6	5	"White22.jpg"	2	1
11	6	2	2	5	"blackRight"	"posRight"	2	3	166	"expBlockCat"	"White_forehead"	"White"	"forehead"	2	1	387	6	5	"White20.jpg"	2	1
11	6	2	2	5	"blackRight"	"posRight"	2	3	167	"expBlockCat"	"White_eyes"	"White"	"eyes"	2	1	568	6	5	"White12.jpg"	2	1
11	6	2	2	5	"blackRight"	"posRight"	2	3	168	"expBlockCat"	"Black_forehead"	"Black"	"forehead"	2	1	494	6	5	"Black40.jpg"	2	1
11	6	2	2	5	"blackRight"	"posRight"	2	3	169	"expBlockCat"	"Black_eyes"	"Black"	"eyes"	1	0	531	6	5	"Black22.jpg"	2	1
11	6	2	2	5	"blackRight"	"posRight"	2	3	170	"expBlockCat"	"Black_forehead"	"Black"	"forehead"	2	1	521	6	5	"Black25.jpg"	2	1
11	6	2	2	5	"blackRight"	"posRight"	2	3	171	"expBlockCat"	"Black_forehead"	"Black"	"forehead"	2	1	504	6	5	"Black31.jpg"	2	1
11	6	2	2	5	"blackRight"	"posRight"	2	3	172	"expBlockCat"	"White_eyes"	"White"	"eyes"	2	1	422	6	5	"White24.jpg"	2	1
11	6	2	2	5	"blackRight"	"posRight"	2	3	173	"expBlockCat"	"White_forehead"	"White"	"forehead"	2	1	499	6	5	"White16.jpg"	2	1
11	6	2	2	5	"blackRight"	"posRight"	2	3	174	"expBlockCat"	"Black_eyes"	"Black"	"eyes"	1	0	458	6	5	"Black6.jpg"	2	1
11	6	2	2	5	"blackRight"	"posRight"	2	3	175	"expBlockCat"	"Black_forehead"	"Black"	"forehead"	2	1	424	6	5	"Black5.jpg"	2	1
11	6	2	2	5	"blackRight"	"posRight"	2	3	176	"expBlockCat"	"White_eyes"	"White"	"eyes"	2	1	350	6	5	"White34.jpg"	2	1
11	6	2	2	5	"blackRight"	"posRight"	2	3	177	"expBlockCat"	"Black_forehead"	"Black"	"forehead"	2	1	772	6	5	"Black36.jpg"	2	1
11	6	2	2	5	"blackRight"	"posRight"	2	3	178	"expBlockCat"	"White_forehead"	"White"	"forehead"	2	1	555	6	5	"White9.jpg"	2	1
11	6	2	2	5	"blackRight"	"posRight"	2	3	179	"expBlockCat"	"White_eyes"	"White"	"eyes"	2	1	537	6	5	"White20.jpg"	2	1
11	6	2	2	5	"blackRight"	"posRight"	2	3	180	"expBlockCat"	"White_forehead"	"White"	"forehead"	2	1	375	6	5	"White54.jpg"	2	1
11	6	2	2	5	"blackRight"	"posRight"	2	3	181	"expBlockCat"	"White_eyes"	"White"	"eyes"	2	1	508	6	5	"White54.jpg"	2	1
11	6	2	2	5	"blackRight"	"posRight"	2	3	182	"expBlockCat"	"White_eyes"	"White"	"eyes"	2	1	474	6	5	"White1.jpg"	2	1
11	6	2	2	5	"blackRight"	"posRight"	2	3	183	"expBlockCat"	"White_eyes"	"White"	"eyes"	2	1	504	6	5	"White8.jpg"	2	1
11	6	2	2	5	"blackRight"	"posRight"	2	3	184	"expBlockCat"	"White_forehead"	"White"	"forehead"	2	1	542	6	5	"White1.jpg"	2	1
11	6	2	2	5	"blackRight"	"posRight"	2	3	185	"expBlockCat"	"White_eyes"	"White"	"eyes"	2	1	364	6	5	"White35.jpg"	2	1
11	6	2	2	5	"blackRight"	"posRight"	2	3	186	"expBlockCat"	"Black_forehead"	"Black"	"forehead"	2	1	563	6	5	"Black32.jpg"	2	1
11	6	2	2	5	"blackRight"	"posRight"	2	3	187	"expBlockCat"	"Black_eyes"	"Black"	"eyes"	1	0	384	6	5	"Black23.jpg"	2	1
11	6	2	2	5	"blackRight"	"posRight"	2	3	188	"expBlockCat"	"White_eyes"	"White"	"eyes"	2	1	478	6	5	"White33.jpg"	2	1
11	6	2	2	5	"blackRight"	"posRight"	2	3	189	"expBlockCat"	"Black_eyes"	"Black"	"eyes"	2	1	380	6	5	"Black25.jpg"	1	0
11	6	2	2	5	"blackRight"	"posRight"	2	3	190	"expBlockCat"	"Black_eyes"	"Black"	"eyes"	1	0	514	6	5	"Black24.jpg"	2	1
11	6	2	2	5	"blackRight"	"posRight"	2	3	191	"expBlockCat"	"Black_eyes"	"Black"	"eyes"	1	0	465	6	5	"Black1.jpg"	2	1
11	6	2	2	5	"blackRight"	"posRight"	2	3	192	"expBlockCat"	"Black_forehead"	"Black"	"forehead"	2	1	423	6	5	"Black6.jpg"	2	1
11	6	2	2	5	"blackRight"	"posRight"	2	3	193	"expBlockCat"	"Black_eyes"	"Black"	"eyes"	1	0	373	6	5	"Black51.jpg"	2	1
11	6	2	2	5	"blackRight"	"posRight"	2	3	194	"expBlockCat"	"White_eyes"	"White"	"eyes"	2	1	491	6	5	"White41.jpg"	2	1
11	6	2	2	5	"blackRight"	"posRight"	2	3	195	"expBlockCat"	"White_eyes"	"White"	"eyes"	2	1	362	6	5	"White32.jpg"	2	1
11	6	2	2	5	"blackRight"	"posRight"	2	3	196	"expBlockCat"	"White_forehead"	"White"	"forehead"	2	1	424	6	5	"White33.jpg"	2	1
11	6	2	2	5	"blackRight"	"posRight"	2	3	197	"expBlockCat"	"Black_eyes"	"Black"	"eyes"	2	1	422	6	5	"Black29.jpg"	1	0
11	6	2	2	5	"blackRight"	"posRight"	2	3	198	"expBlockCat"	"White_forehead"	"White"	"forehead"	2	1	556	6	5	"White26.jpg"	2	1
11	6	2	2	5	"blackRight"	"posRight"	2	3	199	"expBlockCat"	"White_forehead"	"White"	"forehead"	2	1	459	6	5	"White41.jpg"	2	1
11	6	2	2	5	"blackRight"	"posRight"	2	3	200	"expBlockCat"	"Black_forehead"	"Black"	"forehead"	2	1	473	6	5	"Black15.jpg"	2	1
11	6	2	2	5	"blackRight"	"posRight"	2	3	201	"expBlockCat"	"White_forehead"	"White"	"forehead"	2	1	351	6	5	"White22.jpg"	2	1
11	6	2	2	5	"blackRight"	"posRight"	2	3	202	"expBlockCat"	"White_forehead"	"White"	"forehead"	2	1	493	6	5	"White35.jpg"	2	1
11	6	2	2	5	"blackRight"	"posRight"	2	3	203	"expBlockCat"	"Black_forehead"	"Black"	"forehead"	1	0	371	6	5	"Black11.jpg"	1	0
11	6	2	2	5	"blackRight"	"posRight"	2	3	204	"expBlockCat"	"White_eyes"	"White"	"eyes"	2	1	562	6	5	"White14.jpg"	2	1
11	6	2	2	5	"blackRight"	"posRight"	2	3	205	"expBlockCat"	"White_forehead"	"White"	"forehead"	2	1	607	6	5	"White5.jpg"	2	1
11	6	2	2	5	"blackRight"	"posRight"	2	3	206	"expBlockCat"	"White_forehead"	"White"	"forehead"	2	1	413	6	5	"White23.jpg"	2	1
11	6	2	2	5	"blackRight"	"posRight"	2	3	207	"expBlockCat"	"White_forehead"	"White"	"forehead"	2	1	475	6	5	"White2.jpg"	2	1
11	6	2	2	5	"blackRight"	"posRight"	2	3	208	"expBlockCat"	"Black_eyes"	"Black"	"eyes"	2	1	426	6	5	"Black32.jpg"	1	0
11	6	2	2	5	"blackRight"	"posRight"	2	3	209	"expBlockCat"	"White_eyes"	"White"	"eyes"	2	1	368	6	5	"White9.jpg"	2	1
11	6	2	2	5	"blackRight"	"posRight"	2	3	210	"expBlockCat"	"Black_eyes"	"Black"	"eyes"	1	0	510	6	5	"Black15.jpg"	2	1
11	6	2	2	5	"blackRight"	"posRight"	2	3	211	"expBlockCat"	"Black_forehead"	"Black"	"forehead"	2	1	516	6	5	"Black20.jpg"	2	1
11	6	2	2	5	"blackRight"	"posRight"	2	3	212	"expBlockCat"	"Black_eyes"	"Black"	"eyes"	1	0	418	6	5	"Black50.jpg"	2	1
11	6	2	2	5	"blackRight"	"posRight"	2	3	213	"expBlockCat"	"Black_eyes"	"Black"	"eyes"	1	0	432	6	5	"Black26.jpg"	2	1
11	6	2	2	5	"blackRight"	"posRight"	2	3	214	"expBlockCat"	"Black_forehead"	"Black"	"forehead"	2	1	406	6	5	"Black29.jpg"	2	1
11	6	2	2	5	"blackRight"	"posRight"	2	3	215	"expBlockCat"	"Black_forehead"	"Black"	"forehead"	2	1	413	6	5	"Black12.jpg"	2	1
11	6	2	2	5	"blackRight"	"posRight"	2	3	216	"expBlockCat"	"Black_forehead"	"Black"	"forehead"	2	1	411	6	5	"Black23.jpg"	2	1
11	6	2	2	5	"blackRight"	"posRight"	2	3	217	"expBlockCat"	"White_forehead"	"White"	"forehead"	2	1	441	6	5	"White56.jpg"	2	1
11	6	2	2	5	"blackRight"	"posRight"	2	3	218	"expBlockCat"	"Black_eyes"	"Black"	"eyes"	1	0	431	6	5	"Black7.jpg"	2	1
11	6	2	2	5	"blackRight"	"posRight"	2	3	219	"expBlockCat"	"Black_eyes"	"Black"	"eyes"	2	1	486	6	5	"Black27.jpg"	1	0
11	6	2	2	5	"blackRight"	"posRight"	2	3	220	"expBlockCat"	"White_forehead"	"White"	"forehead"	2	1	620	6	5	"White8.jpg"	2	1
11	6	2	2	5	"blackRight"	"posRight"	2	3	221	"expBlockCat"	"Black_forehead"	"Black"	"forehead"	2	1	442	6	5	"Black33.jpg"	2	1
11	6	2	2	5	"blackRight"	"posRight"	2	3	222	"expBlockCat"	"Black_eyes"	"Black"	"eyes"	1	0	496	6	5	"Black16.jpg"	2	1
11	6	2	2	5	"blackRight"	"posRight"	2	3	223	"expBlockCat"	"White_forehead"	"White"	"forehead"	2	1	359	6	5	"White17.jpg"	2	1
11	6	2	2	5	"blackRight"	"posRight"	2	3	224	"expBlockCat"	"White_forehead"	"White"	"forehead"	1	0	444	6	5	"White31.jpg"	1	0
11	6	2	2	5	"blackRight"	"posRight"	2	3	225	"expBlockCat"	"White_eyes"	"White"	"eyes"	2	1	370	6	5	"White26.jpg"	2	1
11	6	2	2	5	"blackRight"	"posRight"	2	3	226	"expBlockCat"	"Black_forehead"	"Black"	"forehead"	2	1	432	6	5	"Black17.jpg"	2	1
11	6	2	2	5	"blackRight"	"posRight"	2	3	227	"expBlockCat"	"Black_eyes"	"Black"	"eyes"	1	0	398	6	5	"Black5.jpg"	2	1
11	6	2	2	5	"blackRight"	"posRight"	2	3	228	"expBlockCat"	"White_eyes"	"White"	"eyes"	2	1	395	6	5	"White3.jpg"	2	1
11	6	2	2	5	"blackRight"	"posRight"	2	3	229	"expBlockCat"	"White_eyes"	"White"	"eyes"	2	1	322	6	5	"White5.jpg"	2	1
11	6	2	2	5	"blackRight"	"posRight"	2	3	230	"expBlockCat"	"White_forehead"	"White"	"forehead"	2	1	568	6	5	"White3.jpg"	2	1
11	6	2	2	5	"blackRight"	"posRight"	2	3	231	"expBlockCat"	"White_forehead"	"White"	"forehead"	2	1	454	6	5	"White29.jpg"	2	1
11	6	2	2	5	"blackRight"	"posRight"	2	3	232	"expBlockCat"	"Black_forehead"	"Black"	"forehead"	2	1	364	6	5	"Black1.jpg"	2	1
11	6	2	2	5	"blackRight"	"posRight"	2	3	233	"expBlockCat"	"Black_forehead"	"Black"	"forehead"	1	0	515	6	5	"Black10.jpg"	1	0
11	6	2	2	5	"blackRight"	"posRight"	2	3	234	"expBlockCat"	"White_forehead"	"White"	"forehead"	2	1	496	6	5	"White11.jpg"	2	1
11	6	2	2	5	"blackRight"	"posRight"	2	3	235	"expBlockCat"	"Black_eyes"	"Black"	"eyes"	1	0	430	6	5	"Black31.jpg"	2	1
11	6	2	2	5	"blackRight"	"posRight"	2	3	236	"expBlockCat"	"Black_forehead"	"Black"	"forehead"	1	0	732	6	5	"Black39.jpg"	1	0
11	6	2	2	5	"blackRight"	"posRight"	2	3	237	"expBlockCat"	"Black_forehead"	"Black"	"forehead"	2	1	458	6	5	"Black16.jpg"	2	1
11	6	2	2	5	"blackRight"	"posRight"	2	3	238	"expBlockCat"	"White_forehead"	"White"	"forehead"	2	1	488	6	5	"White34.jpg"	2	1
11	6	2	2	5	"blackRight"	"posRight"	2	3	239	"expBlockCat"	"White_eyes"	"White"	"eyes"	2	1	463	6	5	"White57.jpg"	2	1
11	6	2	2	5	"blackRight"	"posRight"	2	3	240	"expBlockCat"	"Black_eyes"	"Black"	"eyes"	1	0	541	6	5	"Black13.jpg"	2	1
11	6	2	2	5	"blackRight"	"posRight"	2	3	241	"expBlockCat"	"Black_eyes"	"Black"	"eyes"	1	0	411	6	5	"Black11.jpg"	2	1
11	6	2	2	5	"blackRight"	"posRight"	2	3	242	"expBlockCat"	"White_eyes"	"White"	"eyes"	2	1	529	6	5	"White2.jpg"	2	1
11	6	2	2	5	"blackRight"	"posRight"	2	3	243	"expBlockCat"	"White_forehead"	"White"	"forehead"	3	0	0	6	5	"White18.jpg"	3	0
11	6	2	2	5	"blackRight"	"posRight"	2	3	244	"expBlockCat"	"Black_eyes"	"Black"	"eyes"	1	0	533	6	5	"Black20.jpg"	2	1
11	6	2	2	5	"blackRight"	"posRight"	2	3	245	"expBlockCat"	"White_eyes"	"White"	"eyes"	2	1	386	6	5	"White16.jpg"	2	1
11	6	2	2	5	"blackRight"	"posRight"	2	3	246	"expBlockCat"	"White_forehead"	"White"	"forehead"	2	1	489	6	5	"White14.jpg"	2	1
11	6	2	2	5	"blackRight"	"posRight"	2	3	247	"expBlockCat"	"White_eyes"	"White"	"eyes"	1	0	471	6	5	"White6.jpg"	1	0
11	6	2	2	5	"blackRight"	"posRight"	2	3	248	"expBlockCat"	"White_forehead"	"White"	"forehead"	2	1	421	6	5	"White57.jpg"	2	1
11	6	2	2	5	"blackRight"	"posRight"	2	3	249	"expBlockCat"	"Black_eyes"	"Black"	"eyes"	2	1	339	6	5	"Black2.jpg"	1	0
11	6	2	2	5	"blackRight"	"posRight"	2	3	250	"expBlockCat"	"White_eyes"	"White"	"eyes"	2	1	513	6	5	"White23.jpg"	2	1
11	6	2	2	5	"blackRight"	"posRight"	2	3	251	"expBlockCat"	"Black_eyes"	"Black"	"eyes"	1	0	488	6	5	"Black36.jpg"	2	1
11	6	2	2	5	"blackRight"	"posRight"	2	3	252	"expBlockCat"	"White_forehead"	"White"	"forehead"	2	1	478	6	5	"White6.jpg"	2	1
11	6	2	2	5	"blackRight"	"posRight"	2	3	253	"expBlockCat"	"White_eyes"	"White"	"eyes"	2	1	396	6	5	"White17.jpg"	2	1
11	6	2	2	5	"blackRight"	"posRight"	2	3	254	"expBlockCat"	"White_eyes"	"White"	"eyes"	2	1	490	6	5	"White18.jpg"	2	1
11	6	2	2	5	"blackRight"	"posRight"	2	3	255	"expBlockCat"	"White_eyes"	"White"	"eyes"	1	0	456	6	5	"White10.jpg"	1	0
11	6	2	2	5	"blackRight"	"posRight"	2	3	256	"expBlockCat"	"Black_forehead"	"Black"	"forehead"	2	1	406	6	5	"Black51.jpg"	2	1
12	6	2	1	5	"blackLeft"	"posRight"	2	1	1	"practiceBlockCat"	"Black_forehead"	"Black"	"forehead"	2	1	470	7	6	"Black66.jpg"	2	1
12	6	2	1	5	"blackLeft"	"posRight"	2	1	2	"practiceBlockCat"	"Black_eyes"	"Black"	"eyes"	1	0	460	7	6	"Black61.jpg"	2	1
12	6	2	1	5	"blackLeft"	"posRight"	2	1	3	"practiceBlockCat"	"Black_eyes"	"Black"	"eyes"	1	0	443	7	6	"Black63.jpg"	2	1
12	6	2	1	5	"blackLeft"	"posRight"	2	1	4	"practiceBlockCat"	"White_forehead"	"White"	"forehead"	2	1	434	7	6	"White61.jpg"	2	1
12	6	2	1	5	"blackLeft"	"posRight"	2	1	5	"practiceBlockCat"	"White_forehead"	"White"	"forehead"	2	1	441	7	6	"White67.jpg"	2	1
12	6	2	1	5	"blackLeft"	"posRight"	2	1	6	"practiceBlockCat"	"Black_forehead"	"Black"	"forehead"	2	1	416	7	6	"Black67.jpg"	2	1
12	6	2	1	5	"blackLeft"	"posRight"	2	1	7	"practiceBlockCat"	"White_eyes"	"White"	"eyes"	2	1	471	7	6	"White63.jpg"	2	1
12	6	2	1	5	"blackLeft"	"posRight"	2	1	8	"practiceBlockCat"	"White_eyes"	"White"	"eyes"	2	1	430	7	6	"White65.jpg"	2	1
12	6	2	1	5	"blackLeft"	"posRight"	2	2	1	"expBlockCat"	"Black_eyes"	"Black"	"eyes"	1	0	372	7	6	"Black1.jpg"	2	1
12	6	2	1	5	"blackLeft"	"posRight"	2	2	2	"expBlockCat"	"White_forehead"	"White"	"forehead"	2	1	362	7	6	"White32.jpg"	2	1
12	6	2	1	5	"blackLeft"	"posRight"	2	2	3	"expBlockCat"	"White_eyes"	"White"	"eyes"	2	1	456	7	6	"White22.jpg"	2	1
12	6	2	1	5	"blackLeft"	"posRight"	2	2	4	"expBlockCat"	"Black_forehead"	"Black"	"forehead"	2	1	438	7	6	"Black31.jpg"	2	1
12	6	2	1	5	"blackLeft"	"posRight"	2	2	5	"expBlockCat"	"White_eyes"	"White"	"eyes"	2	1	373	7	6	"White2.jpg"	2	1
12	6	2	1	5	"blackLeft"	"posRight"	2	2	6	"expBlockCat"	"Black_forehead"	"Black"	"forehead"	2	1	339	7	6	"Black11.jpg"	2	1
12	6	2	1	5	"blackLeft"	"posRight"	2	2	7	"expBlockCat"	"Black_eyes"	"Black"	"eyes"	1	0	392	7	6	"Black33.jpg"	2	1
12	6	2	1	5	"blackLeft"	"posRight"	2	2	8	"expBlockCat"	"Black_forehead"	"Black"	"forehead"	2	1	502	7	6	"Black32.jpg"	2	1
12	6	2	1	5	"blackLeft"	"posRight"	2	2	9	"expBlockCat"	"White_eyes"	"White"	"eyes"	2	1	340	7	6	"White24.jpg"	2	1
12	6	2	1	5	"blackLeft"	"posRight"	2	2	10	"expBlockCat"	"Black_eyes"	"Black"	"eyes"	1	0	434	7	6	"Black32.jpg"	2	1
12	6	2	1	5	"blackLeft"	"posRight"	2	2	11	"expBlockCat"	"White_forehead"	"White"	"forehead"	1	0	376	7	6	"White26.jpg"	1	0
12	6	2	1	5	"blackLeft"	"posRight"	2	2	12	"expBlockCat"	"White_forehead"	"White"	"forehead"	2	1	420	7	6	"White31.jpg"	2	1
12	6	2	1	5	"blackLeft"	"posRight"	2	2	13	"expBlockCat"	"Black_forehead"	"Black"	"forehead"	2	1	443	7	6	"Black36.jpg"	2	1
12	6	2	1	5	"blackLeft"	"posRight"	2	2	14	"expBlockCat"	"White_forehead"	"White"	"forehead"	2	1	368	7	6	"White54.jpg"	2	1
12	6	2	1	5	"blackLeft"	"posRight"	2	2	15	"expBlockCat"	"Black_eyes"	"Black"	"eyes"	1	0	422	7	6	"Black15.jpg"	2	1
12	6	2	1	5	"blackLeft"	"posRight"	2	2	16	"expBlockCat"	"Black_forehead"	"Black"	"forehead"	2	1	404	7	6	"Black2.jpg"	2	1
12	6	2	1	5	"blackLeft"	"posRight"	2	2	17	"expBlockCat"	"White_forehead"	"White"	"forehead"	2	1	298	7	6	"White41.jpg"	2	1
12	6	2	1	5	"blackLeft"	"posRight"	2	2	18	"expBlockCat"	"White_eyes"	"White"	"eyes"	2	1	383	7	6	"White32.jpg"	2	1
12	6	2	1	5	"blackLeft"	"posRight"	2	2	19	"expBlockCat"	"Black_eyes"	"Black"	"eyes"	1	0	542	7	6	"Black8.jpg"	2	1
12	6	2	1	5	"blackLeft"	"posRight"	2	2	20	"expBlockCat"	"White_forehead"	"White"	"forehead"	2	1	356	7	6	"White5.jpg"	2	1
12	6	2	1	5	"blackLeft"	"posRight"	2	2	21	"expBlockCat"	"White_forehead"	"White"	"forehead"	2	1	450	7	6	"White56.jpg"	2	1
12	6	2	1	5	"blackLeft"	"posRight"	2	2	22	"expBlockCat"	"Black_forehead"	"Black"	"forehead"	2	1	376	7	6	"Black27.jpg"	2	1
12	6	2	1	5	"blackLeft"	"posRight"	2	2	23	"expBlockCat"	"White_forehead"	"White"	"forehead"	2	1	319	7	6	"White24.jpg"	2	1
12	6	2	1	5	"blackLeft"	"posRight"	2	2	24	"expBlockCat"	"White_forehead"	"White"	"forehead"	2	1	388	7	6	"White12.jpg"	2	1
12	6	2	1	5	"blackLeft"	"posRight"	2	2	25	"expBlockCat"	"Black_eyes"	"Black"	"eyes"	2	1	402	7	6	"Black16.jpg"	1	0
12	6	2	1	5	"blackLeft"	"posRight"	2	2	26	"expBlockCat"	"Black_eyes"	"Black"	"eyes"	1	0	432	7	6	"Black3.jpg"	2	1
12	6	2	1	5	"blackLeft"	"posRight"	2	2	27	"expBlockCat"	"White_forehead"	"White"	"forehead"	2	1	374	7	6	"White22.jpg"	2	1
12	6	2	1	5	"blackLeft"	"posRight"	2	2	28	"expBlockCat"	"Black_eyes"	"Black"	"eyes"	1	0	364	7	6	"Black9.jpg"	2	1
12	6	2	1	5	"blackLeft"	"posRight"	2	2	29	"expBlockCat"	"Black_forehead"	"Black"	"forehead"	2	1	347	7	6	"Black16.jpg"	2	1
12	6	2	1	5	"blackLeft"	"posRight"	2	2	30	"expBlockCat"	"Black_eyes"	"Black"	"eyes"	1	0	456	7	6	"Black40.jpg"	2	1
12	6	2	1	5	"blackLeft"	"posRight"	2	2	31	"expBlockCat"	"Black_forehead"	"Black"	"forehead"	2	1	510	7	6	"Black7.jpg"	2	1
12	6	2	1	5	"blackLeft"	"posRight"	2	2	32	"expBlockCat"	"Black_eyes"	"Black"	"eyes"	1	0	452	7	6	"Black13.jpg"	2	1
12	6	2	1	5	"blackLeft"	"posRight"	2	2	33	"expBlockCat"	"White_eyes"	"White"	"eyes"	2	1	395	7	6	"White31.jpg"	2	1
12	6	2	1	5	"blackLeft"	"posRight"	2	2	34	"expBlockCat"	"White_eyes"	"White"	"eyes"	2	1	545	7	6	"White41.jpg"	2	1
12	6	2	1	5	"blackLeft"	"posRight"	2	2	35	"expBlockCat"	"White_eyes"	"White"	"eyes"	2	1	599	7	6	"White30.jpg"	2	1
12	6	2	1	5	"blackLeft"	"posRight"	2	2	36	"expBlockCat"	"Black_forehead"	"Black"	"forehead"	2	1	373	7	6	"Black17.jpg"	2	1
12	6	2	1	5	"blackLeft"	"posRight"	2	2	37	"expBlockCat"	"White_forehead"	"White"	"forehead"	2	1	468	7	6	"White21.jpg"	2	1
12	6	2	1	5	"blackLeft"	"posRight"	2	2	38	"expBlockCat"	"Black_forehead"	"Black"	"forehead"	2	1	370	7	6	"Black6.jpg"	2	1
12	6	2	1	5	"blackLeft"	"posRight"	2	2	39	"expBlockCat"	"White_forehead"	"White"	"forehead"	2	1	472	7	6	"White57.jpg"	2	1
12	6	2	1	5	"blackLeft"	"posRight"	2	2	40	"expBlockCat"	"Black_forehead"	"Black"	"forehead"	2	1	438	7	6	"Black1.jpg"	2	1
12	6	2	1	5	"blackLeft"	"posRight"	2	2	41	"expBlockCat"	"White_forehead"	"White"	"forehead"	2	1	388	7	6	"White8.jpg"	2	1
12	6	2	1	5	"blackLeft"	"posRight"	2	2	42	"expBlockCat"	"Black_eyes"	"Black"	"eyes"	1	0	515	7	6	"Black10.jpg"	2	1
12	6	2	1	5	"blackLeft"	"posRight"	2	2	43	"expBlockCat"	"White_forehead"	"White"	"forehead"	2	1	336	7	6	"White33.jpg"	2	1
12	6	2	1	5	"blackLeft"	"posRight"	2	2	44	"expBlockCat"	"White_forehead"	"White"	"forehead"	2	1	397	7	6	"White29.jpg"	2	1
12	6	2	1	5	"blackLeft"	"posRight"	2	2	45	"expBlockCat"	"White_forehead"	"White"	"forehead"	2	1	404	7	6	"White35.jpg"	2	1
12	6	2	1	5	"blackLeft"	"posRight"	2	2	46	"expBlockCat"	"Black_forehead"	"Black"	"forehead"	1	0	377	7	6	"Black12.jpg"	1	0
12	6	2	1	5	"blackLeft"	"posRight"	2	2	47	"expBlockCat"	"White_forehead"	"White"	"forehead"	2	1	446	7	6	"White23.jpg"	2	1
12	6	2	1	5	"blackLeft"	"posRight"	2	2	48	"expBlockCat"	"Black_forehead"	"Black"	"forehead"	2	1	340	7	6	"Black39.jpg"	2	1
12	6	2	1	5	"blackLeft"	"posRight"	2	2	49	"expBlockCat"	"White_eyes"	"White"	"eyes"	2	1	361	7	6	"White5.jpg"	2	1
12	6	2	1	5	"blackLeft"	"posRight"	2	2	50	"expBlockCat"	"White_forehead"	"White"	"forehead"	2	1	471	7	6	"White34.jpg"	2	1
